pos,corr_resp,trials.thisRepN,trials.thisTrialN,trials.thisN,trials.thisIndex,trials_2.thisRepN,trials_2.thisTrialN,trials_2.thisN,trials_2.thisIndex,thisRow.t,notes,trial.started,Fixation.started,line_1.started,line_2.started,line_3.started,line_4.started,Fixation.stopped,Probe.started,key_resp.started,trial.stopped,key_resp.keys,key_resp.corr,key_resp.rt,key_resp.duration,participant,session,date,expName,psychopyVersion,frameRate,expStart,
-50,x,0,0,0,0,,,,,0.026444400000400492,,0.016303599999446305,0.026444400000400492,1.009598399999959,1.009598399999959,1.009598399999959,1.009598399999959,1.026480200000151,2.009617399999115,2.009617399999115,2.6636739000005036,x,1,0.642453899999964,None,X,001,2024-10-17_14h46.58.334,Motor Sequence Task,2024.1.5,None,2024-10-17 14h47.07.095221 +0530,
150,v,0,1,1,1,,,,,2.676201599999331,,2.6645165999998426,2.676201599999331,3.6760245999994368,3.6760245999994368,3.6760245999994368,3.6760245999994368,3.6760245999994368,4.675786800000424,4.675786800000424,5.078453500000251,v,1,0.3957368999999744,None,X,001,2024-10-17_14h46.58.334,Motor Sequence Task,2024.1.5,None,2024-10-17 14h47.07.095221 +0530,
50,c,0,2,2,2,,,,,5.092644399999699,,5.079082500000368,5.092644399999699,6.092587400000411,6.092587400000411,6.092587400000411,6.092587400000411,6.092587400000411,7.092216699998971,7.092216699998971,7.645538700000543,c,1,0.5491228000009869,None,X,001,2024-10-17_14h46.58.334,Motor Sequence Task,2024.1.5,None,2024-10-17 14h47.07.095221 +0530,
-150,z,0,3,3,3,,,,,7.658994600000369,,7.646150599999601,7.658994600000369,8.658652899999652,8.658652899999652,8.658652899999652,8.658652899999652,8.658652899999652,9.658545399999639,9.658545399999639,9.961202599999524,z,1,0.29763549999915995,None,X,001,2024-10-17_14h46.58.334,Motor Sequence Task,2024.1.5,None,2024-10-17 14h47.07.095221 +0530,
-50,x,1,0,4,0,,,,,9.975239199999123,,9.96180269999968,9.975239199999123,10.975046699999439,10.975046699999439,10.975046699999439,10.975046699999439,10.975046699999439,11.975064500000371,11.975064500000371,12.377415499999188,x,1,0.3967658000001393,None,X,001,2024-10-17_14h46.58.334,Motor Sequence Task,2024.1.5,None,2024-10-17 14h47.07.095221 +0530,
150,v,1,1,5,1,,,,,12.391507500000444,,12.378042799999093,12.391507500000444,13.391806100000395,13.391806100000395,13.391806100000395,13.391806100000395,13.391806100000395,14.391524999999092,14.391524999999092,14.794432499998948,v,1,0.4007580000015878,None,X,001,2024-10-17_14h46.58.334,Motor Sequence Task,2024.1.5,None,2024-10-17 14h47.07.095221 +0530,
50,c,1,2,6,2,,,,,14.808165200000076,,14.795045299999401,14.808165200000076,15.80800629999976,15.80800629999976,15.80800629999976,15.80800629999976,15.80800629999976,16.807713500000318,16.807713500000318,17.343682999999146,c,1,0.5338552000011987,None,X,001,2024-10-17_14h46.58.334,Motor Sequence Task,2024.1.5,None,2024-10-17 14h47.07.095221 +0530,
-150,z,1,3,7,3,,,,,17.357675899998867,,17.34428040000057,17.357675899998867,18.357508699999016,18.357508699999016,18.357508699999016,18.357508699999016,18.357508699999016,19.357275899999877,19.357275899999877,19.693096799999694,z,1,0.31971489999887126,None,X,001,2024-10-17_14h46.58.334,Motor Sequence Task,2024.1.5,None,2024-10-17 14h47.07.095221 +0530,
-50,x,2,0,8,0,,,,,19.707267499999944,,19.693724799999472,19.707267499999944,20.707146299999295,20.707146299999295,20.707146299999295,20.707146299999295,20.707146299999295,21.707076000000598,21.707076000000598,22.04285659999914,z,0,0.32498020000093675,None,X,001,2024-10-17_14h46.58.334,Motor Sequence Task,2024.1.5,None,2024-10-17 14h47.07.095221 +0530,
150,v,2,1,9,1,,,,,22.056982799998877,,22.04353599999922,22.056982799998877,23.05700649999926,23.05700649999926,23.05700649999926,23.05700649999926,23.05700649999926,24.05661990000044,24.05661990000044,24.50954400000046,v,1,0.44142200000169396,None,X,001,2024-10-17_14h46.58.334,Motor Sequence Task,2024.1.5,None,2024-10-17 14h47.07.095221 +0530,
50,c,2,2,10,2,,,,,24.523465700000088,,24.51014480000049,24.523465700000088,25.523272799999177,25.523272799999177,25.523272799999177,25.523272799999177,25.523272799999177,26.523067599999194,26.523067599999194,26.99218259999907,c,1,0.4601925000006304,None,X,001,2024-10-17_14h46.58.334,Motor Sequence Task,2024.1.5,None,2024-10-17 14h47.07.095221 +0530,
-150,z,2,3,11,3,,,,,27.006209999999555,,26.992780499998844,27.006209999999555,28.00626319999901,28.00626319999901,28.00626319999901,28.00626319999901,28.00626319999901,29.006200899999385,29.006200899999385,29.39207929999975,z,1,0.37182770000072196,None,X,001,2024-10-17_14h46.58.334,Motor Sequence Task,2024.1.5,None,2024-10-17 14h47.07.095221 +0530,
-50,x,3,0,12,0,,,,,29.406673299999966,,29.39267519999885,29.406673299999966,30.40591089999907,30.40591089999907,30.40591089999907,30.40591089999907,30.40591089999907,31.406075599999895,31.406075599999895,31.77480319999995,x,1,0.35617219999949157,None,X,001,2024-10-17_14h46.58.334,Motor Sequence Task,2024.1.5,None,2024-10-17 14h47.07.095221 +0530,
150,v,3,1,13,1,,,,,31.789016700000502,,31.775411200000235,31.789016700000502,32.78883639999913,32.78883639999913,32.78883639999913,32.78883639999913,32.78883639999913,33.78879430000052,33.78879430000052,34.15805619999992,v,1,0.358351800001401,None,X,001,2024-10-17_14h46.58.334,Motor Sequence Task,2024.1.5,None,2024-10-17 14h47.07.095221 +0530,
50,c,3,2,14,2,,,,,34.172018199999,,34.1586554000005,34.172018199999,35.171994399999676,35.171994399999676,35.171994399999676,35.171994399999676,35.171994399999676,36.17192029999933,36.17192029999933,36.60776590000023,x,0,0.4194634999985283,None,X,001,2024-10-17_14h46.58.334,Motor Sequence Task,2024.1.5,None,2024-10-17 14h47.07.095221 +0530,
-150,z,3,3,15,3,,,,,36.62195369999972,,36.60836949999975,36.62195369999972,37.62163539999892,37.62163539999892,37.62163539999892,37.62163539999892,37.62163539999892,38.62149949999912,38.62149949999912,39.04050029999962,z,1,0.40585599999940314,None,X,001,2024-10-17_14h46.58.334,Motor Sequence Task,2024.1.5,None,2024-10-17 14h47.07.095221 +0530,
-50,x,4,0,16,0,,,,,39.05469939999966,,39.04112139999961,39.05469939999966,40.05460970000058,40.05460970000058,40.05460970000058,40.05460970000058,40.05460970000058,41.0551961000001,41.0551961000001,41.540414499999315,x,1,0.48237460000018473,None,X,001,2024-10-17_14h46.58.334,Motor Sequence Task,2024.1.5,None,2024-10-17 14h47.07.095221 +0530,
150,v,4,1,17,1,,,,,41.554383900000175,,41.541024500000276,41.554383900000175,42.55446519999896,42.55446519999896,42.55446519999896,42.55446519999896,42.55446519999896,43.55435170000055,43.55435170000055,44.05651039999975,v,1,0.49367050000000745,None,X,001,2024-10-17_14h46.58.334,Motor Sequence Task,2024.1.5,None,2024-10-17 14h47.07.095221 +0530,
50,c,4,2,18,2,,,,,44.07070389999899,,44.05711039999915,44.07070389999899,45.0708123000004,45.0708123000004,45.0708123000004,45.0708123000004,45.0708123000004,46.07069149999916,46.07069149999916,46.47289809999893,c,1,0.39639790000001085,None,X,001,2024-10-17_14h46.58.334,Motor Sequence Task,2024.1.5,None,2024-10-17 14h47.07.095221 +0530,
-150,z,4,3,19,3,,,,,46.4869963000001,,46.47352049999972,46.4869963000001,47.48701299999993,47.48701299999993,47.48701299999993,47.48701299999993,47.48701299999993,48.48699619999934,48.48699619999934,48.83950840000034,z,1,0.34120400000028894,None,X,001,2024-10-17_14h46.58.334,Motor Sequence Task,2024.1.5,None,2024-10-17 14h47.07.095221 +0530,
-50,x,5,0,20,0,,,,,48.85360039999978,,48.84010639999906,48.85360039999978,49.85349159999896,49.85349159999896,49.85349159999896,49.85349159999896,49.85349159999896,50.853395199999795,50.853395199999795,51.43910209999922,x,1,0.5754286000010325,None,X,001,2024-10-17_14h46.58.334,Motor Sequence Task,2024.1.5,None,2024-10-17 14h47.07.095221 +0530,
150,v,5,1,21,1,,,,,51.45340339999893,,51.43970249999984,51.45340339999893,52.45309610000004,52.45309610000004,52.45309610000004,52.45309610000004,52.45309610000004,53.452994400000534,53.452994400000534,53.87219430000005,v,1,0.4045408000001771,None,X,001,2024-10-17_14h46.58.334,Motor Sequence Task,2024.1.5,None,2024-10-17 14h47.07.095221 +0530,
50,c,5,2,22,2,,,,,53.8862337999999,,53.872806800000035,53.8862337999999,54.88599710000017,54.88599710000017,54.88599710000017,54.88599710000017,54.88599710000017,55.88597859999936,55.88597859999936,56.23854129999927,c,1,0.35138950000145996,None,X,001,2024-10-17_14h46.58.334,Motor Sequence Task,2024.1.5,None,2024-10-17 14h47.07.095221 +0530,
-150,z,5,3,23,3,,,,,56.25270920000003,,56.23913729999913,56.25270920000003,57.25242160000016,57.25242160000016,57.25242160000016,57.25242160000016,57.25242160000016,58.25227140000061,58.25227140000061,58.62152169999899,z,1,0.3563328000000183,None,X,001,2024-10-17_14h46.58.334,Motor Sequence Task,2024.1.5,None,2024-10-17 14h47.07.095221 +0530,
-50,x,6,0,24,0,,,,,58.635870899999645,,58.62212309999995,58.635870899999645,59.635674900000595,59.635674900000595,59.635674900000595,59.635674900000595,59.635674900000595,60.6353139999992,60.6353139999992,60.97119220000059,x,1,0.32444199999918055,None,X,001,2024-10-17_14h46.58.334,Motor Sequence Task,2024.1.5,None,2024-10-17 14h47.07.095221 +0530,
150,v,6,1,25,1,,,,,60.985230299998875,,60.97179250000045,60.985230299998875,61.98517879999963,61.98517879999963,61.98517879999963,61.98517879999963,61.98517879999963,62.984914700000445,62.984914700000445,63.38805499999944,v,1,0.40210690000094473,None,X,001,2024-10-17_14h46.58.334,Motor Sequence Task,2024.1.5,None,2024-10-17 14h47.07.095221 +0530,
50,c,6,2,26,2,,,,,63.40157199999885,,63.38868159999947,63.40157199999885,64.40152370000033,64.40152370000033,64.40152370000033,64.40152370000033,64.40152370000033,65.4013503999995,65.4013503999995,65.83717029999934,c,1,0.428260800001226,None,X,001,2024-10-17_14h46.58.334,Motor Sequence Task,2024.1.5,None,2024-10-17 14h47.07.095221 +0530,
-150,z,6,3,27,3,,,,,65.85128559999976,,65.83776919999946,65.85128559999976,66.85171210000044,66.85171210000044,66.85171210000044,66.85171210000044,66.85171210000044,67.85096039999917,67.85096039999917,68.18704190000062,z,1,0.32200190000003204,None,X,001,2024-10-17_14h46.58.334,Motor Sequence Task,2024.1.5,None,2024-10-17 14h47.07.095221 +0530,
-50,x,7,0,28,0,,,,,68.20119969999905,,68.18765170000006,68.20119969999905,69.20102529999895,69.20102529999895,69.20102529999895,69.20102529999895,69.20102529999895,70.20079470000019,70.20079470000019,70.58653609999965,x,1,0.38109740000072634,None,X,001,2024-10-17_14h46.58.334,Motor Sequence Task,2024.1.5,None,2024-10-17 14h47.07.095221 +0530,
150,v,7,1,29,1,,,,,70.60058930000014,,70.58713259999968,70.60058930000014,71.60058089999984,71.60058089999984,71.60058089999984,71.60058089999984,71.60058089999984,72.60062049999942,72.60062049999942,72.98677750000024,v,1,0.3780116000016278,None,X,001,2024-10-17_14h46.58.334,Motor Sequence Task,2024.1.5,None,2024-10-17 14h47.07.095221 +0530,
50,c,7,2,30,2,,,,,73.00026849999995,,72.98738269999922,73.00026849999995,74.0004026000006,74.0004026000006,74.0004026000006,74.0004026000006,74.0004026000006,75.00006249999933,75.00006249999933,75.48633919999884,c,1,0.48310750000018743,None,X,001,2024-10-17_14h46.58.334,Motor Sequence Task,2024.1.5,None,2024-10-17 14h47.07.095221 +0530,
-150,z,7,3,31,3,,,,,75.50027799999953,,75.48694029999933,75.50027799999953,76.49984099999892,76.49984099999892,76.49984099999892,76.49984099999892,76.49984099999892,77.49978919999921,77.49978919999921,77.85235680000005,z,1,0.34286559999964084,None,X,001,2024-10-17_14h46.58.334,Motor Sequence Task,2024.1.5,None,2024-10-17 14h47.07.095221 +0530,
-50,x,8,0,32,0,,,,,77.86658119999993,,77.85298250000051,77.86658119999993,78.86615829999937,78.86615829999937,78.86615829999937,78.86615829999937,78.86615829999937,79.86604330000046,79.86604330000046,80.25228509999943,x,1,0.3815087000002677,None,X,001,2024-10-17_14h46.58.334,Motor Sequence Task,2024.1.5,None,2024-10-17 14h47.07.095221 +0530,
150,v,8,1,33,1,,,,,80.2660481999992,,80.25291180000022,80.2660481999992,81.26599519999945,81.26599519999945,81.26599519999945,81.26599519999945,81.26599519999945,82.26589020000029,82.26589020000029,82.71820809999917,v,1,0.44177120000131254,None,X,001,2024-10-17_14h46.58.334,Motor Sequence Task,2024.1.5,None,2024-10-17 14h47.07.095221 +0530,
50,c,8,2,34,2,,,,,82.73238159999892,,82.71880729999975,82.73238159999892,83.73233719999917,83.73233719999917,83.73233719999917,83.73233719999917,83.73233719999917,84.73245390000011,84.73245390000011,85.33461829999942,c,1,0.5904955999994854,None,X,001,2024-10-17_14h46.58.334,Motor Sequence Task,2024.1.5,None,2024-10-17 14h47.07.095221 +0530,
-150,z,8,3,35,3,,,,,85.34877869999946,,85.33521239999936,85.34877869999946,86.3486198999999,86.3486198999999,86.3486198999999,86.3486198999999,86.3486198999999,87.3487155999992,87.3487155999992,87.7009278000005,z,1,0.3382859000012104,None,X,001,2024-10-17_14h46.58.334,Motor Sequence Task,2024.1.5,None,2024-10-17 14h47.07.095221 +0530,
-50,x,9,0,36,0,,,,,87.71522580000055,,87.70153840000057,87.71522580000055,88.71510820000003,88.71510820000003,88.71510820000003,88.71510820000003,88.71510820000003,89.7148617999992,89.7148617999992,90.18421499999931,x,1,0.4669997000000876,None,X,001,2024-10-17_14h46.58.334,Motor Sequence Task,2024.1.5,None,2024-10-17 14h47.07.095221 +0530,
150,v,9,1,37,1,,,,,90.19816369999899,,90.18481299999985,90.19816369999899,91.19792710000002,91.19792710000002,91.19792710000002,91.19792710000002,91.19792710000002,92.19786449999992,92.19786449999992,92.71687290000045,v,1,0.5094448999989254,None,X,001,2024-10-17_14h46.58.334,Motor Sequence Task,2024.1.5,None,2024-10-17 14h47.07.095221 +0530,
50,c,9,2,38,2,,,,,92.73105880000003,,92.71747890000006,92.73105880000003,93.73161479999908,93.73161479999908,93.73161479999908,93.73161479999908,93.73161479999908,94.7308009999997,94.7308009999997,95.13355199999933,c,1,0.4012667999995756,None,X,001,2024-10-17_14h46.58.334,Motor Sequence Task,2024.1.5,None,2024-10-17 14h47.07.095221 +0530,
-150,z,9,3,39,3,,,,,95.14740960000017,,95.13415179999902,95.14740960000017,96.14813519999916,96.14813519999916,96.14813519999916,96.14813519999916,96.14813519999916,97.14720669999951,97.14720669999951,97.69990080000025,z,1,0.5365080000010494,None,X,001,2024-10-17_14h46.58.334,Motor Sequence Task,2024.1.5,None,2024-10-17 14h47.07.095221 +0530,
-50,x,10,0,40,0,,,,,97.71383590000005,,97.70055719999982,97.71383590000005,98.71371189999991,98.71371189999991,98.71371189999991,98.71371189999991,98.71371189999991,99.71351859999959,99.71351859999959,100.11579679999886,x,1,0.38920950000101584,None,X,001,2024-10-17_14h46.58.334,Motor Sequence Task,2024.1.5,None,2024-10-17 14h47.07.095221 +0530,
150,v,10,1,41,1,,,,,100.13024380000024,,100.11639959999957,100.13024380000024,101.13001129999975,101.13001129999975,101.13001129999975,101.13001129999975,101.13001129999975,102.13003489999937,102.13003489999937,102.54918439999892,v,1,0.40826729999935196,None,X,001,2024-10-17_14h46.58.334,Motor Sequence Task,2024.1.5,None,2024-10-17 14h47.07.095221 +0530,
50,c,10,2,42,2,,,,,102.5632671000003,,102.54978619999929,102.5632671000003,103.56296199999997,103.56296199999997,103.56296199999997,103.56296199999997,103.56296199999997,104.56289479999941,104.56289479999941,105.26546190000045,c,1,0.6961750999998912,None,X,001,2024-10-17_14h46.58.334,Motor Sequence Task,2024.1.5,None,2024-10-17 14h47.07.095221 +0530,
-150,z,10,3,43,3,,,,,105.27935009999965,,105.26606309999988,105.27935009999965,106.27946630000042,106.27946630000042,106.27946630000042,106.27946630000042,106.27946630000042,107.27930399999968,107.27930399999968,107.68202249999922,z,1,0.3938807000013185,None,X,001,2024-10-17_14h46.58.334,Motor Sequence Task,2024.1.5,None,2024-10-17 14h47.07.095221 +0530,
-50,x,11,0,44,0,,,,,107.69599199999902,,107.68262440000035,107.69599199999902,108.69573800000035,108.69573800000035,108.69573800000035,108.69573800000035,108.69573800000035,109.69559879999906,109.69559879999906,110.19807099999889,x,1,0.48746589999973367,None,X,001,2024-10-17_14h46.58.334,Motor Sequence Task,2024.1.5,None,2024-10-17 14h47.07.095221 +0530,
150,v,11,1,45,1,,,,,110.21212910000031,,110.19867270000032,110.21212910000031,111.21207399999912,111.21207399999912,111.21207399999912,111.21207399999912,111.21207399999912,112.21213750000061,112.21213750000061,112.68147800000042,v,1,0.45635550000042713,None,X,001,2024-10-17_14h46.58.334,Motor Sequence Task,2024.1.5,None,2024-10-17 14h47.07.095221 +0530,
50,c,11,2,46,2,,,,,112.69530900000063,,112.68215789999886,112.69530900000063,113.69503260000056,113.69503260000056,113.69503260000056,113.69503260000056,113.69503260000056,114.69516660000045,114.69516660000045,115.23059920000014,c,1,0.5291335000001709,None,X,001,2024-10-17_14h46.58.334,Motor Sequence Task,2024.1.5,None,2024-10-17 14h47.07.095221 +0530,
-150,z,11,3,47,3,,,,,115.24488840000049,,115.23119880000013,115.24488840000049,116.24467489999915,116.24467489999915,116.24467489999915,116.24467489999915,116.24467489999915,117.24465579999924,117.24465579999924,117.64700149999953,z,1,0.3890443999989657,None,X,001,2024-10-17_14h46.58.334,Motor Sequence Task,2024.1.5,None,2024-10-17 14h47.07.095221 +0530,
-50,x,12,0,48,0,,,,,117.66127450000022,,117.64760860000024,117.66127450000022,118.66133929999887,118.66133929999887,118.66133929999887,118.66133929999887,118.66133929999887,119.6610815999993,119.6610815999993,120.03036939999947,x,1,0.352852800000619,None,X,001,2024-10-17_14h46.58.334,Motor Sequence Task,2024.1.5,None,2024-10-17 14h47.07.095221 +0530,
150,v,12,1,49,1,,,,,120.04435199999898,,120.03097890000026,120.04435199999898,121.04404930000055,121.04404930000055,121.04404930000055,121.04404930000055,121.04404930000055,122.04390070000045,122.04390070000045,122.41339909999988,v,1,0.36360959999910847,None,X,001,2024-10-17_14h46.58.334,Motor Sequence Task,2024.1.5,None,2024-10-17 14h47.07.095221 +0530,
50,c,12,2,50,2,,,,,122.42719190000025,,122.41400280000016,122.42719190000025,123.42727039999954,123.42727039999954,123.42727039999954,123.42727039999954,123.42727039999954,124.42691279999963,124.42691279999963,124.82947899999999,c,1,0.3959956000016973,None,X,001,2024-10-17_14h46.58.334,Motor Sequence Task,2024.1.5,None,2024-10-17 14h47.07.095221 +0530,
-150,z,12,3,51,3,,,,,124.84381079999912,,124.83007929999985,124.84381079999912,125.84365419999995,125.84365419999995,125.84365419999995,125.84365419999995,125.84365419999995,126.84336529999928,126.84336529999928,127.26331989999926,z,1,0.40964639999947394,None,X,001,2024-10-17_14h46.58.334,Motor Sequence Task,2024.1.5,None,2024-10-17 14h47.07.095221 +0530,
-50,x,13,0,52,0,,,,,127.27674200000001,,127.26393719999942,127.27674200000001,128.27667079999992,128.27667079999992,128.27667079999992,128.27667079999992,128.27667079999992,129.27642220000052,129.27642220000052,129.7124184000004,x,1,0.43231940000077884,None,X,001,2024-10-17_14h46.58.334,Motor Sequence Task,2024.1.5,None,2024-10-17 14h47.07.095221 +0530,
150,v,13,1,53,1,,,,,129.72647469999902,,129.71301909999966,129.72647469999902,130.7260449000005,130.7260449000005,130.7260449000005,130.7260449000005,130.7260449000005,131.72601439999926,131.72601439999926,132.17875619999904,v,1,0.4480431000010867,None,X,001,2024-10-17_14h46.58.334,Motor Sequence Task,2024.1.5,None,2024-10-17 14h47.07.095221 +0530,
50,c,13,2,54,2,,,,,132.19274589999986,,132.17936729999929,132.19274589999986,133.19251239999903,133.19251239999903,133.19251239999903,133.19251239999903,133.19251239999903,134.19240439999885,134.19240439999885,134.64509259999977,c,1,0.4403539999984787,None,X,001,2024-10-17_14h46.58.334,Motor Sequence Task,2024.1.5,None,2024-10-17 14h47.07.095221 +0530,
-150,z,13,3,55,3,,,,,134.65904649999902,,134.6456916999996,134.65904649999902,135.65884209999967,135.65884209999967,135.65884209999967,135.65884209999967,135.65884209999967,136.6590030999996,136.6590030999996,137.06153559999984,z,1,0.3884167999985948,None,X,001,2024-10-17_14h46.58.334,Motor Sequence Task,2024.1.5,None,2024-10-17 14h47.07.095221 +0530,
-50,x,14,0,56,0,,,,,137.07536160000018,,137.06214360000013,137.07536160000018,138.0760453999992,138.0760453999992,138.0760453999992,138.0760453999992,138.0760453999992,139.07507409999926,139.07507409999926,139.49445430000014,x,1,0.40860889999930805,None,X,001,2024-10-17_14h46.58.334,Motor Sequence Task,2024.1.5,None,2024-10-17 14h47.07.095221 +0530,
150,v,14,1,57,1,,,,,139.5084523000005,,139.495060199999,139.5084523000005,140.50840760000028,140.50840760000028,140.50840760000028,140.50840760000028,140.50840760000028,141.5082100999989,141.5082100999989,142.16135399999985,v,1,0.6409031999992294,None,X,001,2024-10-17_14h46.58.334,Motor Sequence Task,2024.1.5,None,2024-10-17 14h47.07.095221 +0530,
50,c,14,2,58,2,,,,,142.1750121999994,,142.16196089999903,142.1750121999994,143.1745307000001,143.1745307000001,143.1745307000001,143.1745307000001,143.1745307000001,144.174555399999,144.174555399999,144.6771962999992,c,1,0.4997348000015336,None,X,001,2024-10-17_14h46.58.334,Motor Sequence Task,2024.1.5,None,2024-10-17 14h47.07.095221 +0530,
-150,z,14,3,59,3,,,,,144.69117629999892,,144.67807709999943,144.69117629999892,145.69104490000063,145.69104490000063,145.69104490000063,145.69104490000063,145.69104490000063,146.69079779999993,146.69079779999993,147.02730109999902,z,1,0.3326140999997733,None,X,001,2024-10-17_14h46.58.334,Motor Sequence Task,2024.1.5,None,2024-10-17 14h47.07.095221 +0530,
-50,x,15,0,60,0,,,,,147.0410109000004,,147.02790249999998,147.0410109000004,148.04056420000052,148.04056420000052,148.04056420000052,148.04056420000052,148.04056420000052,149.04046779999953,149.04046779999953,149.44293990000006,x,1,0.38639319999856525,None,X,001,2024-10-17_14h46.58.334,Motor Sequence Task,2024.1.5,None,2024-10-17 14h47.07.095221 +0530,
150,v,15,1,61,1,,,,,149.45726719999948,,149.44354290000047,149.45726719999948,150.45702899999924,150.45702899999924,150.45702899999924,150.45702899999924,150.45702899999924,151.45701089999966,151.45701089999966,151.85950020000018,v,1,0.3963511000001745,None,X,001,2024-10-17_14h46.58.334,Motor Sequence Task,2024.1.5,None,2024-10-17 14h47.07.095221 +0530,
50,c,15,2,62,2,,,,,151.87351599999965,,151.86011189999954,151.87351599999965,152.87324049999916,152.87324049999916,152.87324049999916,152.87324049999916,152.87324049999916,153.8731929000005,153.8731929000005,154.2425146000005,x,0,0.3601534999997966,None,X,001,2024-10-17_14h46.58.334,Motor Sequence Task,2024.1.5,None,2024-10-17 14h47.07.095221 +0530,
-150,z,15,3,63,3,,,,,154.25639670000055,,154.24311529999977,154.25639670000055,155.2563326999989,155.2563326999989,155.2563326999989,155.2563326999989,155.2563326999989,156.25622769999973,156.25622769999973,156.6421664999998,z,1,0.3809832999995706,None,X,001,2024-10-17_14h46.58.334,Motor Sequence Task,2024.1.5,None,2024-10-17 14h47.07.095221 +0530,
-50,x,16,0,64,0,,,,,156.6562152000006,,156.64277120000042,156.6562152000006,157.65607830000044,157.65607830000044,157.65607830000044,157.65607830000044,157.65607830000044,158.65651819999948,158.65651819999948,159.17496000000028,x,1,0.5120641999983491,None,X,001,2024-10-17_14h46.58.334,Motor Sequence Task,2024.1.5,None,2024-10-17 14h47.07.095221 +0530,
150,v,16,1,65,1,,,,,159.18934179999997,,159.1755573999999,159.18934179999997,160.1892470999992,160.1892470999992,160.1892470999992,160.1892470999992,160.1892470999992,161.18908269999883,161.18908269999883,161.5414041999993,v,1,0.33697249999931955,None,X,001,2024-10-17_14h46.58.334,Motor Sequence Task,2024.1.5,None,2024-10-17 14h47.07.095221 +0530,
50,c,16,2,66,2,,,,,161.5555734999998,,161.54200459999993,161.5555734999998,162.5555328999999,162.5555328999999,162.5555328999999,162.5555328999999,162.5555328999999,163.5553875000005,163.5553875000005,163.8747031999992,c,1,0.31714300000021467,None,X,001,2024-10-17_14h46.58.334,Motor Sequence Task,2024.1.5,None,2024-10-17 14h47.07.095221 +0530,
-150,z,16,3,67,3,,,,,163.8885876000004,,163.87530829999923,163.8885876000004,164.88859880000018,164.88859880000018,164.88859880000018,164.88859880000018,164.88859880000018,165.88836040000024,165.88836040000024,166.20790619999934,z,1,0.31444069999997737,None,X,001,2024-10-17_14h46.58.334,Motor Sequence Task,2024.1.5,None,2024-10-17 14h47.07.095221 +0530,
-50,x,17,0,68,0,,,,,166.22161339999911,,166.2085189999998,166.22161339999911,167.2214511000002,167.2214511000002,167.2214511000002,167.2214511000002,167.2214511000002,168.22139339999922,168.22139339999922,168.62464619999992,x,1,0.39926350000132516,None,X,001,2024-10-17_14h46.58.334,Motor Sequence Task,2024.1.5,None,2024-10-17 14h47.07.095221 +0530,
150,v,17,1,69,1,,,,,168.6382665000001,,168.62524569999914,168.6382665000001,169.6378212999989,169.6378212999989,169.6378212999989,169.6378212999989,169.6378212999989,170.6375595999998,170.6375595999998,171.14018980000037,v,1,0.48920600000019476,None,X,001,2024-10-17_14h46.58.334,Motor Sequence Task,2024.1.5,None,2024-10-17 14h47.07.095221 +0530,
50,c,17,2,70,2,,,,,171.15427850000015,,171.14079800000036,171.15427850000015,172.154271899999,172.154271899999,172.154271899999,172.154271899999,172.154271899999,173.15431360000002,173.15431360000002,173.57330249999904,c,1,0.4166728999989573,None,X,001,2024-10-17_14h46.58.334,Motor Sequence Task,2024.1.5,None,2024-10-17 14h47.07.095221 +0530,
-150,z,17,3,71,3,,,,,173.58734709999953,,173.57390529999975,173.58734709999953,174.58707270000014,174.58707270000014,174.58707270000014,174.58707270000014,174.58707270000014,175.58697349999966,175.58697349999966,175.95609879999938,z,1,0.35962970000036876,None,X,001,2024-10-17_14h46.58.334,Motor Sequence Task,2024.1.5,None,2024-10-17 14h47.07.095221 +0530,
-50,x,18,0,72,0,,,,,175.97043250000024,,175.95670359999895,175.97043250000024,176.97069069999998,176.97069069999998,176.97069069999998,176.97069069999998,176.97069069999998,177.96992359999967,177.96992359999967,178.42259809999996,c,0,0.4469398999990517,None,X,001,2024-10-17_14h46.58.334,Motor Sequence Task,2024.1.5,None,2024-10-17 14h47.07.095221 +0530,
150,v,18,1,73,1,,,,,178.43664270000045,,178.42321269999957,178.43664270000045,179.4366212999994,179.4366212999994,179.4366212999994,179.4366212999994,179.4366212999994,180.43642009999894,180.43642009999894,180.78878919999988,v,1,0.33900530000028084,None,X,001,2024-10-17_14h46.58.334,Motor Sequence Task,2024.1.5,None,2024-10-17 14h47.07.095221 +0530,
50,c,18,2,74,2,,,,,180.80292849999933,,180.78939100000025,180.80292849999933,181.8029289999995,181.8029289999995,181.8029289999995,181.8029289999995,181.8029289999995,182.80296499999895,182.80296499999895,183.18851360000008,c,1,0.3791844999996101,None,X,001,2024-10-17_14h46.58.334,Motor Sequence Task,2024.1.5,None,2024-10-17 14h47.07.095221 +0530,
-150,z,18,3,75,3,,,,,183.20269799999915,,183.18911279999884,183.20269799999915,184.20257850000053,184.20257850000053,184.20257850000053,184.20257850000053,184.20257850000053,185.20239039999979,185.20239039999979,185.62156309999955,z,1,0.41369120000126713,None,X,001,2024-10-17_14h46.58.334,Motor Sequence Task,2024.1.5,None,2024-10-17 14h47.07.095221 +0530,
-50,x,19,0,76,0,,,,,185.63566859999992,,185.62217389999932,185.63566859999992,186.6355724999994,186.6355724999994,186.6355724999994,186.6355724999994,186.6355724999994,187.6353519000004,187.6353519000004,188.0879700000005,x,1,0.43542539999907603,None,X,001,2024-10-17_14h46.58.334,Motor Sequence Task,2024.1.5,None,2024-10-17 14h47.07.095221 +0530,
150,v,19,1,77,1,,,,,188.10211369999888,,188.08857069999976,188.10211369999888,189.1019006000006,189.1019006000006,189.1019006000006,189.1019006000006,189.1019006000006,190.10189009999885,190.10189009999885,190.43767169999956,v,1,0.3298717999987275,None,X,001,2024-10-17_14h46.58.334,Motor Sequence Task,2024.1.5,None,2024-10-17 14h47.07.095221 +0530,
50,c,19,2,78,2,,,,,190.4517689000004,,190.4382726999993,190.4517689000004,191.45174190000034,191.45174190000034,191.45174190000034,191.45174190000034,191.45174190000034,192.451472499999,192.451472499999,193.0375081000002,c,1,0.5839728999999352,None,X,001,2024-10-17_14h46.58.334,Motor Sequence Task,2024.1.5,None,2024-10-17 14h47.07.095221 +0530,
-150,z,19,3,79,3,,,,,193.05139690000033,,193.0381082999993,193.05139690000033,194.05135250000058,194.05135250000058,194.05135250000058,194.05135250000058,194.05135250000058,195.05114139999932,195.05114139999932,195.40383830000064,z,1,0.3396978000000672,None,X,001,2024-10-17_14h46.58.334,Motor Sequence Task,2024.1.5,None,2024-10-17 14h47.07.095221 +0530,
-50,x,20,0,80,0,,,,,195.4176607999998,,195.40444380000008,195.4176607999998,196.41755329999978,196.41755329999978,196.41755329999978,196.41755329999978,196.41755329999978,197.41741039999943,197.41741039999943,197.90323139999964,x,1,0.4804559000003792,None,X,001,2024-10-17_14h46.58.334,Motor Sequence Task,2024.1.5,None,2024-10-17 14h47.07.095221 +0530,
150,v,20,1,81,1,,,,,197.91727449999962,,197.90383870000005,197.91727449999962,198.9174738999991,198.9174738999991,198.9174738999991,198.9174738999991,198.9174738999991,199.91732000000047,199.91732000000047,200.50287480000043,v,1,0.5783562999986316,None,X,001,2024-10-17_14h46.58.334,Motor Sequence Task,2024.1.5,None,2024-10-17 14h47.07.095221 +0530,
50,c,20,2,82,2,,,,,200.51701879999928,,200.5034773999996,200.51701879999928,201.51706319999903,201.51706319999903,201.51706319999903,201.51706319999903,201.51706319999903,202.51696850000008,202.51696850000008,203.0201933999997,c,1,0.4936914000008983,None,X,001,2024-10-17_14h46.58.334,Motor Sequence Task,2024.1.5,None,2024-10-17 14h47.07.095221 +0530,
-150,z,20,3,83,3,,,,,203.0337227,,203.02080209999986,203.0337227,204.0333140999992,204.0333140999992,204.0333140999992,204.0333140999992,204.0333140999992,205.0332397000002,205.0332397000002,205.36907059999976,z,1,0.32754600000043865,None,X,001,2024-10-17_14h46.58.334,Motor Sequence Task,2024.1.5,None,2024-10-17 14h47.07.095221 +0530,
-50,x,21,0,84,0,,,,,205.38305740000033,,205.3696691999994,205.38305740000033,206.38327589999972,206.38327589999972,206.38327589999972,206.38327589999972,206.38327589999972,207.38287879999916,207.38287879999916,207.7355177999998,x,1,0.3470075999994151,None,X,001,2024-10-17_14h46.58.334,Motor Sequence Task,2024.1.5,None,2024-10-17 14h47.07.095221 +0530,
150,v,21,1,85,1,,,,,207.74973089999912,,207.73612259999936,207.74973089999912,208.74941249999938,208.74941249999938,208.74941249999938,208.74941249999938,208.74941249999938,209.7493360999997,209.7493360999997,210.1185645000005,v,1,0.356505499999912,None,X,001,2024-10-17_14h46.58.334,Motor Sequence Task,2024.1.5,None,2024-10-17 14h47.07.095221 +0530,
50,c,21,2,86,2,,,,,210.13257879999946,,210.11916689999998,210.13257879999946,211.1323639000002,211.1323639000002,211.1323639000002,211.1323639000002,211.1323639000002,212.13232400000015,212.13232400000015,212.58483999999953,c,1,0.4476441999995586,None,X,001,2024-10-17_14h46.58.334,Motor Sequence Task,2024.1.5,None,2024-10-17 14h47.07.095221 +0530,
-150,z,21,3,87,3,,,,,212.59894320000058,,212.58543569999892,212.59894320000058,213.59869020000042,213.59869020000042,213.59869020000042,213.59869020000042,213.59869020000042,214.59864729999936,214.59864729999936,215.0511502999998,z,1,0.44096390000049723,None,X,001,2024-10-17_14h46.58.334,Motor Sequence Task,2024.1.5,None,2024-10-17 14h47.07.095221 +0530,
-50,x,22,0,88,0,,,,,215.06516249999913,,215.05174830000033,215.06516249999913,216.06515769999896,216.06515769999896,216.06515769999896,216.06515769999896,216.06515769999896,217.0648366000005,217.0648366000005,217.46772359999886,x,1,0.3948876000013115,None,X,001,2024-10-17_14h46.58.334,Motor Sequence Task,2024.1.5,None,2024-10-17 14h47.07.095221 +0530,
150,v,22,1,89,1,,,,,217.48163530000056,,217.4683318999996,217.48163530000056,218.4815679000003,218.4815679000003,218.4815679000003,218.4815679000003,218.4815679000003,219.4812493999998,219.4812493999998,219.78409490000013,v,1,0.2943238999996538,None,X,001,2024-10-17_14h46.58.334,Motor Sequence Task,2024.1.5,None,2024-10-17 14h47.07.095221 +0530,
50,c,22,2,90,2,,,,,219.79790409999987,,219.78469609999956,219.79790409999987,220.79811429999972,220.79811429999972,220.79811429999972,220.79811429999972,220.79811429999972,221.7979546000006,221.7979546000006,222.25047839999934,c,1,0.4495449000005465,None,X,001,2024-10-17_14h46.58.334,Motor Sequence Task,2024.1.5,None,2024-10-17 14h47.07.095221 +0530,
-150,z,22,3,91,3,,,,,222.26436280000053,,222.2510801999997,222.26436280000053,223.26428589999887,223.26428589999887,223.26428589999887,223.26428589999887,223.26428589999887,224.26395199999934,224.26395199999934,224.63366320000023,z,1,0.3666730999993888,None,X,001,2024-10-17_14h46.58.334,Motor Sequence Task,2024.1.5,None,2024-10-17 14h47.07.095221 +0530,
-50,x,23,0,92,0,,,,,224.64724360000037,,224.63426489999983,224.64724360000037,225.64722549999897,225.64722549999897,225.64722549999897,225.64722549999897,225.64722549999897,226.647261099999,226.647261099999,226.96634450000056,x,1,0.3179263000001811,None,X,001,2024-10-17_14h46.58.334,Motor Sequence Task,2024.1.5,None,2024-10-17 14h47.07.095221 +0530,
150,v,23,1,93,1,,,,,226.98043060000055,,226.96695030000046,226.98043060000055,227.98039140000037,227.98039140000037,227.98039140000037,227.98039140000037,227.98039140000037,228.97990480000044,228.97990480000044,229.3827925000005,v,1,0.4011510000000271,None,X,001,2024-10-17_14h46.58.334,Motor Sequence Task,2024.1.5,None,2024-10-17 14h47.07.095221 +0530,
50,c,23,2,94,2,,,,,229.3968058999999,,229.38342430000012,229.3968058999999,230.39659070000016,230.39659070000016,230.39659070000016,230.39659070000016,230.39659070000016,231.39656289999948,231.39656289999948,231.88274499999898,c,1,0.4836228999993182,None,X,001,2024-10-17_14h46.58.334,Motor Sequence Task,2024.1.5,None,2024-10-17 14h47.07.095221 +0530,
-150,z,23,3,95,3,,,,,231.89638120000018,,231.8833522999994,231.89638120000018,232.89620990000003,232.89620990000003,232.89620990000003,232.89620990000003,232.89620990000003,233.89621269999952,233.89621269999952,234.1986025999995,z,1,0.28940550000152143,None,X,001,2024-10-17_14h46.58.334,Motor Sequence Task,2024.1.5,None,2024-10-17 14h47.07.095221 +0530,
-50,x,24,0,96,0,,,,,234.2127877999992,,234.19922899999983,234.2127877999992,235.21261649999906,235.21261649999906,235.21261649999906,235.21261649999906,235.21261649999906,236.21255179999935,236.21255179999935,236.6149050999993,x,1,0.3969261000002007,None,X,001,2024-10-17_14h46.58.334,Motor Sequence Task,2024.1.5,None,2024-10-17 14h47.07.095221 +0530,
150,v,24,1,97,1,,,,,236.62910939999892,,236.61550630000056,236.62910939999892,237.6289474999994,237.6289474999994,237.6289474999994,237.6289474999994,237.6289474999994,238.6290573999995,238.6290573999995,239.03175550000014,v,1,0.39103310000064084,None,X,001,2024-10-17_14h46.58.334,Motor Sequence Task,2024.1.5,None,2024-10-17 14h47.07.095221 +0530,
50,c,24,2,98,2,,,,,239.04576409999936,,239.03235889999996,239.04576409999936,240.0452581999998,240.0452581999998,240.0452581999998,240.0452581999998,240.0452581999998,241.04511420000017,241.04511420000017,241.63107449999916,c,1,0.5702127999993536,None,X,001,2024-10-17_14h46.58.334,Motor Sequence Task,2024.1.5,None,2024-10-17 14h47.07.095221 +0530,
-150,z,24,3,99,3,,,,,241.64509670000007,,241.6316852,241.64509670000007,242.64503879999938,242.64503879999938,242.64503879999938,242.64503879999938,242.64503879999938,243.64480790000016,243.64480790000016,243.96402829999897,z,1,0.3050511999990704,None,X,001,2024-10-17_14h46.58.334,Motor Sequence Task,2024.1.5,None,2024-10-17 14h47.07.095221 +0530,
-50,x,25,0,100,0,,,,,243.9786253000002,,243.96462989999964,243.9786253000002,244.9781278999999,244.9781278999999,244.9781278999999,244.9781278999999,244.9781278999999,245.9779495999992,245.9779495999992,246.38044009999976,x,1,0.38794700000107696,None,X,001,2024-10-17_14h46.58.334,Motor Sequence Task,2024.1.5,None,2024-10-17 14h47.07.095221 +0530,
150,v,25,1,101,1,,,,,246.39440699999977,,246.38104070000009,246.39440699999977,247.39462970000022,247.39462970000022,247.39462970000022,247.39462970000022,247.39462970000022,248.39424979999967,248.39424979999967,248.73016819999975,v,1,0.3272047000009479,None,X,001,2024-10-17_14h46.58.334,Motor Sequence Task,2024.1.5,None,2024-10-17 14h47.07.095221 +0530,
50,c,25,2,102,2,,,,,248.74420009999994,,248.73077329999978,248.74420009999994,249.74418250000053,249.74418250000053,249.74418250000053,249.74418250000053,249.74418250000053,250.7440392999997,250.7440392999997,251.07983590000003,c,1,0.3212134999994305,None,X,001,2024-10-17_14h46.58.334,Motor Sequence Task,2024.1.5,None,2024-10-17 14h47.07.095221 +0530,
-150,z,25,3,103,3,,,,,251.09378230000038,,251.08043329999964,251.09378230000038,252.09379760000047,252.09379760000047,252.09379760000047,252.09379760000047,252.09379760000047,253.09375199999886,253.09375199999886,253.3799743999989,z,1,0.2778643000001466,None,X,001,2024-10-17_14h46.58.334,Motor Sequence Task,2024.1.5,None,2024-10-17 14h47.07.095221 +0530,
-50,x,26,0,104,0,,,,,253.39383289999932,,253.38058590000037,253.39383289999932,254.39371989999927,254.39371989999927,254.39371989999927,254.39371989999927,254.39371989999927,255.3933347000002,255.3933347000002,255.84573400000045,c,0,0.4413327999991452,None,X,001,2024-10-17_14h46.58.334,Motor Sequence Task,2024.1.5,None,2024-10-17 14h47.07.095221 +0530,
150,v,26,1,105,1,,,,,255.86020049999934,,255.84633089999988,255.86020049999934,256.8596001999995,256.8596001999995,256.8596001999995,256.8596001999995,256.8596001999995,257.85968219999995,257.85968219999995,258.3789257999997,v,1,0.5125222999995458,None,X,001,2024-10-17_14h46.58.334,Motor Sequence Task,2024.1.5,None,2024-10-17 14h47.07.095221 +0530,
50,c,26,2,106,2,,,,,258.3930363999989,,258.37952679999944,258.3930363999989,259.3928605000001,259.3928605000001,259.3928605000001,259.3928605000001,259.3928605000001,260.3926367999993,260.3926367999993,260.79547020000064,c,1,0.3982054000007338,None,X,001,2024-10-17_14h46.58.334,Motor Sequence Task,2024.1.5,None,2024-10-17 14h47.07.095221 +0530,
-150,z,26,3,107,3,,,,,260.809368799999,,260.7960796999996,260.809368799999,261.80927410000004,261.80927410000004,261.80927410000004,261.80927410000004,261.80927410000004,262.8090197999991,262.8090197999991,263.1615542999989,z,1,0.3413360000013199,None,X,001,2024-10-17_14h46.58.334,Motor Sequence Task,2024.1.5,None,2024-10-17 14h47.07.095221 +0530,
-50,x,27,0,108,0,,,,,263.17557979999947,,263.1621878999995,263.17557979999947,264.17554910000035,264.17554910000035,264.17554910000035,264.17554910000035,264.17554910000035,265.1756740000001,265.1756740000001,265.6112510999992,z,0,0.42495700000108627,None,X,001,2024-10-17_14h46.58.334,Motor Sequence Task,2024.1.5,None,2024-10-17 14h47.07.095221 +0530,
150,v,27,1,109,1,,,,,265.62541729999975,,265.6118483999999,265.62541729999975,266.6252179000003,266.6252179000003,266.6252179000003,266.6252179000003,266.6252179000003,267.62534289999894,267.62534289999894,267.99421710000024,v,1,0.3602712000010797,None,X,001,2024-10-17_14h46.58.334,Motor Sequence Task,2024.1.5,None,2024-10-17 14h47.07.095221 +0530,
50,c,27,2,110,2,,,,,268.00830870000027,,267.99482109999917,268.00830870000027,269.00890489999983,269.00890489999983,269.00890489999983,269.00890489999983,269.00890489999983,270.0080684000004,270.0080684000004,270.36061580000023,c,1,0.344088499999998,None,X,001,2024-10-17_14h46.58.334,Motor Sequence Task,2024.1.5,None,2024-10-17 14h47.07.095221 +0530,
-150,z,27,3,111,3,,,,,270.3749659999994,,270.3612209999992,270.3749659999994,271.37459990000025,271.37459990000025,271.37459990000025,271.37459990000025,271.37459990000025,272.37434159999975,272.37434159999975,272.6936143999992,z,1,0.30711280000105035,None,X,001,2024-10-17_14h46.58.334,Motor Sequence Task,2024.1.5,None,2024-10-17 14h47.07.095221 +0530,
-50,x,28,0,112,0,,,,,272.7078813999997,,272.69421820000025,272.7078813999997,273.7077881999994,273.7077881999994,273.7077881999994,273.7077881999994,273.7077881999994,274.7074723000005,274.7074723000005,275.16001940000024,x,1,0.4381327999999485,None,X,001,2024-10-17_14h46.58.334,Motor Sequence Task,2024.1.5,None,2024-10-17 14h47.07.095221 +0530,
150,v,28,1,113,1,,,,,275.17416909999884,,275.1606276000002,275.17416909999884,276.1739381999996,276.1739381999996,276.1739381999996,276.1739381999996,276.1739381999996,277.1738578000004,277.1738578000004,277.5595942,v,1,0.37728059999972174,None,X,001,2024-10-17_14h46.58.334,Motor Sequence Task,2024.1.5,None,2024-10-17 14h47.07.095221 +0530,
50,c,28,2,114,2,,,,,277.5737348999992,,277.5601993,277.5737348999992,278.5737664999997,278.5737664999997,278.5737664999997,278.5737664999997,278.5737664999997,279.5734799999991,279.5734799999991,280.00927860000047,c,1,0.4218507999994472,None,X,001,2024-10-17_14h46.58.334,Motor Sequence Task,2024.1.5,None,2024-10-17 14h47.07.095221 +0530,
-150,z,28,3,115,3,,,,,280.02347539999937,,280.0098818999995,280.02347539999937,281.0233470000003,281.0233470000003,281.0233470000003,281.0233470000003,281.0233470000003,282.02322879999883,282.02322879999883,282.3424307000005,z,1,0.3122010000006412,None,X,001,2024-10-17_14h46.58.334,Motor Sequence Task,2024.1.5,None,2024-10-17 14h47.07.095221 +0530,
-50,x,29,0,116,0,,,,,282.3565527999999,,282.34303910000017,282.3565527999999,283.3563290000002,283.3563290000002,283.3563290000002,283.3563290000002,283.3563290000002,284.3562775999999,284.3562775999999,284.7419439999994,x,1,0.379721299999801,None,X,001,2024-10-17_14h46.58.334,Motor Sequence Task,2024.1.5,None,2024-10-17 14h47.07.095221 +0530,
150,v,29,1,117,1,,,,,284.7561846999997,,284.7425476999997,284.7561846999997,285.7560849999991,285.7560849999991,285.7560849999991,285.7560849999991,285.7560849999991,286.7559686000004,286.7559686000004,287.10887120000007,v,1,0.34450680000009015,None,X,001,2024-10-17_14h46.58.334,Motor Sequence Task,2024.1.5,None,2024-10-17 14h47.07.095221 +0530,
50,c,29,2,118,2,,,,,287.12242499999957,,287.10949489999985,287.12242499999957,288.12243379999927,288.12243379999927,288.12243379999927,288.12243379999927,288.12243379999927,289.12267450000036,289.12267450000036,289.65822970000045,c,1,0.5328241000006528,None,X,001,2024-10-17_14h46.58.334,Motor Sequence Task,2024.1.5,None,2024-10-17 14h47.07.095221 +0530,
-150,z,29,3,119,3,,,,,289.6721985000004,,289.65883329999997,289.6721985000004,290.6720876999989,290.6720876999989,290.6720876999989,290.6720876999989,290.6720876999989,291.67202390000057,291.67202390000057,292.00781090000055,z,1,0.3242558999991161,None,X,001,2024-10-17_14h46.58.334,Motor Sequence Task,2024.1.5,None,2024-10-17 14h47.07.095221 +0530,
-50,x,30,0,120,0,,,,,292.0219892999994,,292.0084416999998,292.0219892999994,293.02186119999897,293.02186119999897,293.02186119999897,293.02186119999897,293.02186119999897,294.0216019999989,294.0216019999989,294.4572198999995,x,1,0.4253450999985944,None,X,001,2024-10-17_14h46.58.334,Motor Sequence Task,2024.1.5,None,2024-10-17 14h47.07.095221 +0530,
150,v,30,1,121,1,,,,,294.471523799999,,294.45782659999895,294.471523799999,295.4716262999991,295.4716262999991,295.4716262999991,295.4716262999991,295.4716262999991,296.47122579999996,296.47122579999996,296.824351199999,v,1,0.3491247000001749,None,X,001,2024-10-17_14h46.58.334,Motor Sequence Task,2024.1.5,None,2024-10-17 14h47.07.095221 +0530,
50,c,30,2,122,2,,,,,296.8381793999997,,296.824955099999,296.8381793999997,297.8377710999994,297.8377710999994,297.8377710999994,297.8377710999994,297.8377710999994,298.8375954000003,298.8375954000003,299.37341620000007,c,1,0.5280577000012272,None,X,001,2024-10-17_14h46.58.334,Motor Sequence Task,2024.1.5,None,2024-10-17 14h47.07.095221 +0530,
-150,z,30,3,123,3,,,,,299.3876275999992,,299.37401639999916,299.3876275999992,300.38738960000046,300.38738960000046,300.38738960000046,300.38738960000046,300.38738960000046,301.3873652000002,301.3873652000002,301.73973529999967,z,1,0.34391840000171214,None,X,001,2024-10-17_14h46.58.334,Motor Sequence Task,2024.1.5,None,2024-10-17 14h47.07.095221 +0530,
-50,x,31,0,124,0,,,,,301.753806499999,,301.7403396999998,301.753806499999,302.75399749999997,302.75399749999997,302.75399749999997,302.75399749999997,302.75399749999997,303.75418530000024,303.75418530000024,304.1730831999994,x,1,0.4172188000011374,None,X,001,2024-10-17_14h46.58.334,Motor Sequence Task,2024.1.5,None,2024-10-17 14h47.07.095221 +0530,
150,v,31,1,125,1,,,,,304.18708460000016,,304.1737178000003,304.18708460000016,305.1868947999992,305.1868947999992,305.1868947999992,305.1868947999992,305.1868947999992,306.18659970000044,306.18659970000044,306.5726417999995,v,1,0.374893999998676,None,X,001,2024-10-17_14h46.58.334,Motor Sequence Task,2024.1.5,None,2024-10-17 14h47.07.095221 +0530,
50,c,31,2,126,2,,,,,306.58673909999925,,306.5732434999991,306.58673909999925,307.5865869999998,307.5865869999998,307.5865869999998,307.5865869999998,307.5865869999998,308.58636130000014,308.58636130000014,309.03919979999955,v,0,0.44969709999895713,None,X,001,2024-10-17_14h46.58.334,Motor Sequence Task,2024.1.5,None,2024-10-17 14h47.07.095221 +0530,
-150,z,31,3,127,3,,,,,309.0531099,,309.03980839999895,309.0531099,310.0529026000004,310.0529026000004,310.0529026000004,310.0529026000004,310.0529026000004,311.05261729999984,311.05261729999984,311.3721480000004,z,1,0.3183933000000252,None,X,001,2024-10-17_14h46.58.334,Motor Sequence Task,2024.1.5,None,2024-10-17 14h47.07.095221 +0530,
-50,x,32,0,128,0,,,,,311.3860387000004,,311.3727579999995,311.3860387000004,312.38588569999956,312.38588569999956,312.38588569999956,312.38588569999956,312.38588569999956,313.3857511999995,313.3857511999995,313.82158809999964,x,1,0.4264668999985588,None,X,001,2024-10-17_14h46.58.334,Motor Sequence Task,2024.1.5,None,2024-10-17 14h47.07.095221 +0530,
150,v,32,1,129,1,,,,,313.8359681999991,,313.8221902000005,313.8359681999991,314.83564040000056,314.83564040000056,314.83564040000056,314.83564040000056,314.83564040000056,315.83582919999935,315.83582919999935,316.22139249999964,v,1,0.37610940000013215,None,X,001,2024-10-17_14h46.58.334,Motor Sequence Task,2024.1.5,None,2024-10-17 14h47.07.095221 +0530,
50,c,32,2,130,2,,,,,316.23562440000023,,316.2220025000006,316.23562440000023,317.2352498,317.2352498,317.2352498,317.2352498,317.2352498,318.235058799999,318.235058799999,318.6375513999992,c,1,0.38600960000076157,None,X,001,2024-10-17_14h46.58.334,Motor Sequence Task,2024.1.5,None,2024-10-17 14h47.07.095221 +0530,
-150,z,32,3,131,3,,,,,318.6516991999997,,318.6381581000005,318.6516991999997,319.6517525999989,319.6517525999989,319.6517525999989,319.6517525999989,319.6517525999989,320.6521804999993,320.6521804999993,320.98739679999926,z,1,0.3248256000006222,None,X,001,2024-10-17_14h46.58.334,Motor Sequence Task,2024.1.5,None,2024-10-17 14h47.07.095221 +0530,
-50,x,33,0,132,0,,,,,321.0016035999997,,320.9880183999994,321.0016035999997,322.0011816999995,322.0011816999995,322.0011816999995,322.0011816999995,322.0011816999995,323.00126119999913,323.00126119999913,323.38824889999887,x,1,0.38527609999982815,None,X,001,2024-10-17_14h46.58.334,Motor Sequence Task,2024.1.5,None,2024-10-17 14h47.07.095221 +0530,
150,v,33,1,133,1,,,,,323.4012096000006,,323.3889270999989,323.4012096000006,324.40096189999895,324.40096189999895,324.40096189999895,324.40096189999895,324.40096189999895,325.4008054999995,325.4008054999995,325.836599799999,v,1,0.4208195999999589,None,X,001,2024-10-17_14h46.58.334,Motor Sequence Task,2024.1.5,None,2024-10-17 14h47.07.095221 +0530,
50,c,33,2,134,2,,,,,325.85074580000037,,325.8372010000003,325.85074580000037,326.85076970000046,326.85076970000046,326.85076970000046,326.85076970000046,326.85076970000046,327.8506373,327.8506373,328.21976749999885,c,1,0.3564165999996476,None,X,001,2024-10-17_14h46.58.334,Motor Sequence Task,2024.1.5,None,2024-10-17 14h47.07.095221 +0530,
-150,z,33,3,135,3,,,,,328.2342554000006,,328.22036560000015,328.2342554000006,329.233670399999,329.233670399999,329.233670399999,329.233670399999,329.233670399999,330.2339047000005,330.2339047000005,330.6364178999993,z,1,0.39837360000092303,None,X,001,2024-10-17_14h46.58.334,Motor Sequence Task,2024.1.5,None,2024-10-17 14h47.07.095221 +0530,
-50,x,34,0,136,0,,,,,330.65054469999995,,330.637021999999,330.65054469999995,331.65023069999916,331.65023069999916,331.65023069999916,331.65023069999916,331.65023069999916,332.65002040000036,332.65002040000036,333.0859333999997,x,1,0.43223460000081104,None,X,001,2024-10-17_14h46.58.334,Motor Sequence Task,2024.1.5,None,2024-10-17 14h47.07.095221 +0530,
150,v,34,1,137,1,,,,,333.09988169999997,,333.08654019999994,333.09988169999997,334.0997812000005,334.0997812000005,334.0997812000005,334.0997812000005,334.0997812000005,335.09967940000024,335.09967940000024,335.4523356999998,v,1,0.33654479999859177,None,X,001,2024-10-17_14h46.58.334,Motor Sequence Task,2024.1.5,None,2024-10-17 14h47.07.095221 +0530,
50,c,34,2,138,2,,,,,335.46614489999956,,335.4529361999994,335.46614489999956,336.4661811999995,336.4661811999995,336.4661811999995,336.4661811999995,336.4661811999995,337.4659953999999,337.4659953999999,337.91879139999946,c,1,0.4455130000005738,None,X,001,2024-10-17_14h46.58.334,Motor Sequence Task,2024.1.5,None,2024-10-17 14h47.07.095221 +0530,
-150,z,34,3,139,3,,,,,337.93259059999946,,337.9193952000005,337.93259059999946,338.9324233999996,338.9324233999996,338.9324233999996,338.9324233999996,338.9324233999996,339.93245939999906,339.93245939999906,340.30158719999963,z,1,0.3541862999991281,None,X,001,2024-10-17_14h46.58.334,Motor Sequence Task,2024.1.5,None,2024-10-17 14h47.07.095221 +0530,
-50,x,35,0,140,0,,,,,340.31567469999936,,340.3021936999994,340.31567469999936,341.3155093000005,341.3155093000005,341.3155093000005,341.3155093000005,341.3155093000005,342.3154056000003,342.3154056000003,342.6845441000005,x,1,0.3627765000001091,None,X,001,2024-10-17_14h46.58.334,Motor Sequence Task,2024.1.5,None,2024-10-17 14h47.07.095221 +0530,
150,v,35,1,141,1,,,,,342.6985573999991,,342.68516249999993,342.6985573999991,343.6986042999997,343.6986042999997,343.6986042999997,343.6986042999997,343.6986042999997,344.69835299999977,344.69835299999977,345.0179501999992,v,1,0.31862870000077237,None,X,001,2024-10-17_14h46.58.334,Motor Sequence Task,2024.1.5,None,2024-10-17 14h47.07.095221 +0530,
50,c,35,2,142,2,,,,,345.03230970000004,,345.0185825999997,345.03230970000004,346.0315706000001,346.0315706000001,346.0315706000001,346.0315706000001,346.0315706000001,347.03148390000024,347.03148390000024,347.4343585000006,c,1,0.38589910000155214,None,X,001,2024-10-17_14h46.58.334,Motor Sequence Task,2024.1.5,None,2024-10-17 14h47.07.095221 +0530,
-150,z,35,3,143,3,,,,,347.448090599999,,347.4349595999993,347.448090599999,348.4478311999992,348.4478311999992,348.4478311999992,348.4478311999992,348.4478311999992,349.4478421999993,349.4478421999993,349.7181220000002,z,1,0.2686501000007411,None,X,001,2024-10-17_14h46.58.334,Motor Sequence Task,2024.1.5,None,2024-10-17 14h47.07.095221 +0530,
-50,x,36,0,144,0,,,,,349.73199569999997,,349.7187264999993,349.73199569999997,350.7308954,350.7308954,350.7308954,350.7308954,350.7477211000005,351.7311480999997,351.7311480999997,352.06707110000025,x,1,0.331929099998888,None,X,001,2024-10-17_14h46.58.334,Motor Sequence Task,2024.1.5,None,2024-10-17 14h47.07.095221 +0530,
150,v,36,1,145,1,,,,,352.08082749999994,,352.0676825999999,352.08082749999994,353.08079199999884,353.08079199999884,353.08079199999884,353.08079199999884,353.08079199999884,354.0804881999993,354.0804881999993,354.3997252999998,v,1,0.3057866999988619,None,X,001,2024-10-17_14h46.58.334,Motor Sequence Task,2024.1.5,None,2024-10-17 14h47.07.095221 +0530,
50,c,36,2,146,2,,,,,354.41385269999955,,354.40033349999976,354.41385269999955,355.41379380000035,355.41379380000035,355.41379380000035,355.41379380000035,355.41379380000035,356.41376180000043,356.41376180000043,356.9328805999994,c,1,0.51413550000143,None,X,001,2024-10-17_14h46.58.334,Motor Sequence Task,2024.1.5,None,2024-10-17 14h47.07.095221 +0530,
-150,z,36,3,147,3,,,,,356.9469530999995,,356.9335914000003,356.9469530999995,357.9468135999996,357.9468135999996,357.9468135999996,357.9468135999996,357.9468135999996,358.94659519999914,358.94659519999914,359.4154708999995,z,1,0.45536799999899813,None,X,001,2024-10-17_14h46.58.334,Motor Sequence Task,2024.1.5,None,2024-10-17 14h47.07.095221 +0530,
-50,x,37,0,148,0,,,,,359.4298601999999,,359.4160673000006,359.4298601999999,360.4297996999994,360.4297996999994,360.4297996999994,360.4297996999994,360.4297996999994,361.42953599999964,361.42953599999964,361.89862580000045,x,1,0.46404960000108986,None,X,001,2024-10-17_14h46.58.334,Motor Sequence Task,2024.1.5,None,2024-10-17 14h47.07.095221 +0530,
150,v,37,1,149,1,,,,,361.9128409999994,,361.89923439999984,361.9128409999994,362.91264729999966,362.91264729999966,362.91264729999966,362.91264729999966,362.91264729999966,363.91249099999914,363.91249099999914,364.36504029999924,v,1,0.4457548999998835,None,X,001,2024-10-17_14h46.58.334,Motor Sequence Task,2024.1.5,None,2024-10-17 14h47.07.095221 +0530,
50,c,37,2,150,2,,,,,364.37934159999895,,364.3656403999994,364.37934159999895,365.37903650000044,365.37903650000044,365.37903650000044,365.37903650000044,365.37903650000044,366.379415899999,366.379415899999,366.7650699000005,c,1,0.37948839999990014,None,X,001,2024-10-17_14h46.58.334,Motor Sequence Task,2024.1.5,None,2024-10-17 14h47.07.095221 +0530,
-150,z,37,3,151,3,,,,,366.7789121000005,,366.7656743999996,366.7789121000005,367.77883309999925,367.77883309999925,367.77883309999925,367.77883309999925,367.77883309999925,368.77851159999955,368.77851159999955,369.0979785999989,z,1,0.3044379000002664,None,X,001,2024-10-17_14h46.58.334,Motor Sequence Task,2024.1.5,None,2024-10-17 14h47.07.095221 +0530,
-50,x,38,0,152,0,,,,,369.1118783999991,,369.09857139999986,369.1118783999991,370.11221660000047,370.11221660000047,370.11221660000047,370.11221660000047,370.11221660000047,371.11160629999904,371.11160629999904,371.5308693999996,x,1,0.41163140000026033,None,X,001,2024-10-17_14h46.58.334,Motor Sequence Task,2024.1.5,None,2024-10-17 14h47.07.095221 +0530,
150,v,38,1,153,1,,,,,371.544721799999,,371.53146579999884,371.544721799999,372.5448342999989,372.5448342999989,372.5448342999989,372.5448342999989,372.5448342999989,373.5445725999998,373.5445725999998,373.9136247000006,v,1,0.3587164999989909,None,X,001,2024-10-17_14h46.58.334,Motor Sequence Task,2024.1.5,None,2024-10-17 14h47.07.095221 +0530,
50,c,38,2,154,2,,,,,373.9279265999994,,373.9142284999998,373.9279265999994,374.92774499999905,374.92774499999905,374.92774499999905,374.92774499999905,374.92774499999905,375.9278694000004,375.9278694000004,376.2971147999997,c,1,0.3562185999999201,None,X,001,2024-10-17_14h46.58.334,Motor Sequence Task,2024.1.5,None,2024-10-17 14h47.07.095221 +0530,
-150,z,38,3,155,3,,,,,376.31097450000016,,376.29771489999985,376.31097450000016,377.31077619999996,377.31077619999996,377.31077619999996,377.31077619999996,377.31077619999996,378.3105887999991,378.3105887999991,378.6799687999992,z,1,0.3674399000010453,None,X,001,2024-10-17_14h46.58.334,Motor Sequence Task,2024.1.5,None,2024-10-17 14h47.07.095221 +0530,
-50,x,39,0,156,0,,,,,378.6939533999994,,378.6805698999997,378.6939533999994,379.6938795999995,379.6938795999995,379.6938795999995,379.6938795999995,379.6938795999995,380.69370419999905,380.69370419999905,381.17972589999954,x,1,0.4812017000003834,None,X,001,2024-10-17_14h46.58.334,Motor Sequence Task,2024.1.5,None,2024-10-17 14h47.07.095221 +0530,
150,v,39,1,157,1,,,,,381.1935279999998,,381.18033189999915,381.1935279999998,382.1937686000001,382.1937686000001,382.1937686000001,382.1937686000001,382.1937686000001,383.19350660000055,383.19350660000055,383.59592949999933,v,1,0.39156780000121216,None,X,001,2024-10-17_14h46.58.334,Motor Sequence Task,2024.1.5,None,2024-10-17 14h47.07.095221 +0530,
50,c,39,2,158,2,,,,,383.610087699999,,383.5965302000004,383.610087699999,384.60975619999954,384.60975619999954,384.60975619999954,384.60975619999954,384.60975619999954,385.6100217000003,385.6100217000003,386.01267670000016,c,1,0.4005858000000444,None,X,001,2024-10-17_14h46.58.334,Motor Sequence Task,2024.1.5,None,2024-10-17 14h47.07.095221 +0530,
-150,z,39,3,159,3,,,,,386.0263395000002,,386.01327669999955,386.0263395000002,387.02630409999983,387.02630409999983,387.02630409999983,387.02630409999983,387.02630409999983,388.0260242000004,388.0260242000004,388.37869969999883,z,1,0.3390617999993992,None,X,001,2024-10-17_14h46.58.334,Motor Sequence Task,2024.1.5,None,2024-10-17 14h47.07.095221 +0530,
-50,x,40,0,160,0,,,,,388.39286469999934,,388.3792990000002,388.39286469999934,389.3927015999998,389.3927015999998,389.3927015999998,389.3927015999998,389.3927015999998,390.39256449999993,390.39256449999993,390.8283159999992,x,1,0.4228132000007463,None,X,001,2024-10-17_14h46.58.334,Motor Sequence Task,2024.1.5,None,2024-10-17 14h47.07.095221 +0530,
150,v,40,1,161,1,,,,,390.84243570000035,,390.8289162000001,390.84243570000035,391.8423858999995,391.8423858999995,391.8423858999995,391.8423858999995,391.8423858999995,392.8421278000005,392.8421278000005,393.24481579999883,v,1,0.38892850000047474,None,X,001,2024-10-17_14h46.58.334,Motor Sequence Task,2024.1.5,None,2024-10-17 14h47.07.095221 +0530,
50,c,40,2,162,2,,,,,393.2587700999993,,393.2454290000005,393.2587700999993,394.2586518999997,394.2586518999997,394.2586518999997,394.2586518999997,394.2586518999997,395.25845689999915,395.25845689999915,395.82759389999956,c,1,0.5570956000010483,None,X,001,2024-10-17_14h46.58.334,Motor Sequence Task,2024.1.5,None,2024-10-17 14h47.07.095221 +0530,
-150,z,40,3,163,3,,,,,395.84165199999916,,395.8282012999989,395.84165199999916,396.84257289999914,396.84257289999914,396.84257289999914,396.84257289999914,396.84257289999914,397.8414551999995,397.8414551999995,399.060551999999,z,1,1.2057446999988315,None,X,001,2024-10-17_14h46.58.334,Motor Sequence Task,2024.1.5,None,2024-10-17 14h47.07.095221 +0530,
-50,x,41,0,164,0,,,,,399.07520769999974,,399.0611544000003,399.07520769999974,400.0744474000003,400.0744474000003,400.0744474000003,400.0744474000003,400.0744474000003,401.0743872000003,401.0743872000003,401.5769273999995,x,1,0.4946022999993147,None,X,001,2024-10-17_14h46.58.334,Motor Sequence Task,2024.1.5,None,2024-10-17 14h47.07.095221 +0530,
150,v,41,1,165,1,,,,,401.5910193999989,,401.57752880000044,401.5910193999989,402.59078279999994,402.59078279999994,402.59078279999994,402.59078279999994,402.59078279999994,403.59097979999933,403.59097979999933,403.97657249999975,v,1,0.3738969999994879,None,X,001,2024-10-17_14h46.58.334,Motor Sequence Task,2024.1.5,None,2024-10-17 14h47.07.095221 +0530,
50,c,41,2,166,2,,,,,403.9906133000004,,403.97717229999944,403.9906133000004,404.99044349999895,404.99044349999895,404.99044349999895,404.99044349999895,404.99044349999895,405.9904241000004,405.9904241000004,406.5098342000001,c,1,0.5147247999993851,None,X,001,2024-10-17_14h46.58.334,Motor Sequence Task,2024.1.5,None,2024-10-17 14h47.07.095221 +0530,
-150,z,41,3,167,3,,,,,406.5237047999999,,406.51044869999896,406.5237047999999,407.5235816000004,407.5235816000004,407.5235816000004,407.5235816000004,407.5235816000004,408.5237632999997,408.5237632999997,408.9257302999995,z,1,0.3902490999989823,None,X,001,2024-10-17_14h46.58.334,Motor Sequence Task,2024.1.5,None,2024-10-17 14h47.07.095221 +0530,
-50,x,42,0,168,0,,,,,408.9399928999992,,408.926329599999,408.9399928999992,409.94016419999934,409.94016419999934,409.94016419999934,409.94016419999934,409.94016419999934,410.93991389999974,410.93991389999974,411.425557999999,x,1,0.4691761000012775,None,X,001,2024-10-17_14h46.58.334,Motor Sequence Task,2024.1.5,None,2024-10-17 14h47.07.095221 +0530,
150,v,42,1,169,1,,,,,411.4397417,,411.4261594999989,411.4397417,412.43954479999957,412.43954479999957,412.43954479999957,412.43954479999957,412.43954479999957,413.4395389000001,413.4395389000001,413.8087818999993,v,1,0.3562766000013653,None,X,001,2024-10-17_14h46.58.334,Motor Sequence Task,2024.1.5,None,2024-10-17 14h47.07.095221 +0530,
50,c,42,2,170,2,,,,,413.8230485999993,,413.80938570000035,413.8230485999993,414.8227879999995,414.8227879999995,414.8227879999995,414.8227879999995,414.8227879999995,415.82266340000024,415.82266340000024,416.37499410000055,c,1,0.5369325000010576,None,X,001,2024-10-17_14h46.58.334,Motor Sequence Task,2024.1.5,None,2024-10-17 14h47.07.095221 +0530,
-150,z,42,3,171,3,,,,,416.38904150000053,,416.37559299999884,416.38904150000053,417.3890274000005,417.3890274000005,417.3890274000005,417.3890274000005,417.3890274000005,418.38871019999897,418.38871019999897,418.75814009999885,z,1,0.3683488999995461,None,X,001,2024-10-17_14h46.58.334,Motor Sequence Task,2024.1.5,None,2024-10-17 14h47.07.095221 +0530,
-50,x,43,0,172,0,,,,,418.77225759999965,,418.75875189999897,418.77225759999965,419.7719421999991,419.7719421999991,419.7719421999991,419.7719421999991,419.7719421999991,420.77203779999945,420.77203779999945,421.2076460999997,x,1,0.41986440000073344,None,X,001,2024-10-17_14h46.58.334,Motor Sequence Task,2024.1.5,None,2024-10-17 14h47.07.095221 +0530,
150,v,43,1,173,1,,,,,421.2219974999989,,421.20823980000023,421.2219974999989,422.22165080000013,422.22165080000013,422.22165080000013,422.22165080000013,422.22165080000013,423.22146470000007,423.22146470000007,423.70732099999987,v,1,0.47045579999939946,None,X,001,2024-10-17_14h46.58.334,Motor Sequence Task,2024.1.5,None,2024-10-17 14h47.07.095221 +0530,
50,c,43,2,174,2,,,,,423.7214079999994,,423.7079486999992,423.7214079999994,424.72132930000043,424.72132930000043,424.72132930000043,424.72132930000043,424.72132930000043,425.7212901999992,425.7212901999992,426.1074257,c,1,0.37615329999971436,None,X,001,2024-10-17_14h46.58.334,Motor Sequence Task,2024.1.5,None,2024-10-17 14h47.07.095221 +0530,
-150,z,43,3,175,3,,,,,426.1212603999993,,426.1080454999992,426.1212603999993,427.1210166000001,427.1210166000001,427.1210166000001,427.1210166000001,427.1210166000001,428.1208551999989,428.1208551999989,428.4909071999991,z,1,0.36171139999896695,None,X,001,2024-10-17_14h46.58.334,Motor Sequence Task,2024.1.5,None,2024-10-17 14h47.07.095221 +0530,
-50,x,44,0,176,0,,,,,428.5041005999992,,428.4916457999989,428.5041005999992,429.50438159999976,429.50438159999976,429.50438159999976,429.50438159999976,429.50438159999976,430.5039109999998,430.5039109999998,431.0231598999999,x,1,0.513794999998936,None,X,001,2024-10-17_14h46.58.334,Motor Sequence Task,2024.1.5,None,2024-10-17 14h47.07.095221 +0530,
150,v,44,1,177,1,,,,,431.03736369999933,,431.02376809999987,431.03736369999933,432.03785140000036,432.03785140000036,432.03785140000036,432.03785140000036,432.03785140000036,433.0370956000006,433.0370956000006,433.47269310000047,v,1,0.43086529999891354,None,X,001,2024-10-17_14h46.58.334,Motor Sequence Task,2024.1.5,None,2024-10-17 14h47.07.095221 +0530,
50,c,44,2,178,2,,,,,433.4873370999994,,433.4732901999996,433.4873370999994,434.48678499999914,434.48678499999914,434.48678499999914,434.48678499999914,434.48678499999914,435.48684180000055,435.48684180000055,436.08909159999894,c,1,0.5911031000014191,None,X,001,2024-10-17_14h46.58.334,Motor Sequence Task,2024.1.5,None,2024-10-17 14h47.07.095221 +0530,
-150,z,44,3,179,3,,,,,436.10310369999934,,436.0896868,436.10310369999934,437.10315959999934,437.10315959999934,437.10315959999934,437.10315959999934,437.10315959999934,438.10296860000017,438.10296860000017,438.45656640000016,z,1,0.3509251999985281,None,X,001,2024-10-17_14h46.58.334,Motor Sequence Task,2024.1.5,None,2024-10-17 14h47.07.095221 +0530,
-50,x,45,0,180,0,,,,,438.46970539999893,,438.45716170000014,438.46970539999893,439.46949719999975,439.46949719999975,439.46949719999975,439.46949719999975,439.46949719999975,440.4695136999999,440.4695136999999,440.8886098999992,x,1,0.4047250999992684,None,X,001,2024-10-17_14h46.58.334,Motor Sequence Task,2024.1.5,None,2024-10-17 14h47.07.095221 +0530,
150,v,45,1,181,1,,,,,440.9026374999994,,440.88920979999966,440.9026374999994,441.9023469999993,441.9023469999993,441.9023469999993,441.9023469999993,441.9023469999993,442.90226470000016,442.90226470000016,443.338389999999,v,1,0.4309202999993431,None,X,001,2024-10-17_14h46.58.334,Motor Sequence Task,2024.1.5,None,2024-10-17 14h47.07.095221 +0530,
50,c,45,2,182,2,,,,,443.3524904999995,,443.33898670000053,443.3524904999995,444.3534256999992,444.3534256999992,444.3534256999992,444.3534256999992,444.3534256999992,445.35197770000013,445.35197770000013,445.77157160000024,v,0,0.4131621000015002,None,X,001,2024-10-17_14h46.58.334,Motor Sequence Task,2024.1.5,None,2024-10-17 14h47.07.095221 +0530,
-150,z,45,3,183,3,,,,,445.78523809999933,,445.7721681000003,445.78523809999933,446.7851504999999,446.7851504999999,446.7851504999999,446.7851504999999,446.7851504999999,447.7857839999997,447.7857839999997,448.1542950000003,z,1,0.36715170000024955,None,X,001,2024-10-17_14h46.58.334,Motor Sequence Task,2024.1.5,None,2024-10-17 14h47.07.095221 +0530,
-50,x,46,0,184,0,,,,,448.1685340999993,,448.1548977000002,448.1685340999993,449.1680656999997,449.1680656999997,449.1680656999997,449.1680656999997,449.1680656999997,450.1680899999992,450.1680899999992,450.6707284999993,x,1,0.5006126000007498,None,X,001,2024-10-17_14h46.58.334,Motor Sequence Task,2024.1.5,None,2024-10-17 14h47.07.095221 +0530,
150,v,46,1,185,1,,,,,450.6846387000005,,450.6713383999995,450.6846387000005,451.6845637999995,451.6845637999995,451.6845637999995,451.6845637999995,451.6845637999995,452.68447170000036,452.68447170000036,453.10429490000024,v,1,0.4099095999990823,None,X,001,2024-10-17_14h46.58.334,Motor Sequence Task,2024.1.5,None,2024-10-17 14h47.07.095221 +0530,
50,c,46,2,186,2,,,,,453.1177286000002,,453.1048902000002,453.1177286000002,454.11750070000016,454.11750070000016,454.11750070000016,454.11750070000016,454.11750070000016,455.11726850000014,455.11726850000014,455.5704905999992,c,1,0.4478272999986075,None,X,001,2024-10-17_14h46.58.334,Motor Sequence Task,2024.1.5,None,2024-10-17 14h47.07.095221 +0530,
-150,z,46,3,187,3,,,,,455.58409539999957,,455.57108179999886,455.58409539999957,456.5838442999993,456.5838442999993,456.5838442999993,456.5838442999993,456.5838442999993,457.5839369999994,457.5839369999994,458.0697973000006,z,1,0.47704569999950763,None,X,001,2024-10-17_14h46.58.334,Motor Sequence Task,2024.1.5,None,2024-10-17 14h47.07.095221 +0530,
-50,x,47,0,188,0,,,,,458.0837534000002,,458.07039989999976,458.0837534000002,459.0835437000005,459.0835437000005,459.0835437000005,459.0835437000005,459.0835437000005,460.083267,460.083267,460.65287460000036,x,1,0.5633399999987887,None,X,001,2024-10-17_14h46.58.334,Motor Sequence Task,2024.1.5,None,2024-10-17 14h47.07.095221 +0530,
150,v,47,1,189,1,,,,,460.66686780000055,,460.6535036999994,460.66686780000055,461.66644599999927,461.66644599999927,461.66644599999927,461.66644599999927,461.66644599999927,462.66643250000016,462.66643250000016,463.05226539999967,v,1,0.36988670000027923,None,X,001,2024-10-17_14h46.58.334,Motor Sequence Task,2024.1.5,None,2024-10-17 14h47.07.095221 +0530,
50,c,47,2,190,2,,,,,463.066504299999,,463.0528892000002,463.066504299999,464.0667905999999,464.0667905999999,464.0667905999999,464.0667905999999,464.0667905999999,465.06629369999973,465.06629369999973,465.66861919999974,c,1,0.5996186000011221,None,X,001,2024-10-17_14h46.58.334,Motor Sequence Task,2024.1.5,None,2024-10-17 14h47.07.095221 +0530,
-150,z,47,3,191,3,,,,,465.6827524,,465.669224199999,465.6827524,466.68263169999955,466.68263169999955,466.68263169999955,466.68263169999955,466.68263169999955,467.6823734999998,467.6823734999998,468.08517720000054,z,1,0.39890400000149384,None,X,001,2024-10-17_14h46.58.334,Motor Sequence Task,2024.1.5,None,2024-10-17 14h47.07.095221 +0530,
-50,x,48,0,192,0,,,,,468.0990115000004,,468.0857789999991,468.0990115000004,469.09914000000026,469.09914000000026,469.09914000000026,469.09914000000026,469.09914000000026,470.09886899999947,470.09886899999947,470.4679992000001,x,1,0.3678850999986025,None,X,001,2024-10-17_14h46.58.334,Motor Sequence Task,2024.1.5,None,2024-10-17 14h47.07.095221 +0530,
150,v,48,1,193,1,,,,,470.48208650000015,,470.4686038999989,470.48208650000015,471.4819284999994,471.4819284999994,471.4819284999994,471.4819284999994,471.4819284999994,472.4817863999997,472.4817863999997,472.8841319999992,v,1,0.3951058999991801,None,X,001,2024-10-17_14h46.58.334,Motor Sequence Task,2024.1.5,None,2024-10-17 14h47.07.095221 +0530,
50,c,48,2,194,2,,,,,472.8985217999998,,472.88472980000006,472.8985217999998,473.89830260000053,473.89830260000053,473.89830260000053,473.89830260000053,473.89830260000053,474.8981316999998,474.8981316999998,475.2846544999993,c,1,0.3734552999994776,None,X,001,2024-10-17_14h46.58.334,Motor Sequence Task,2024.1.5,None,2024-10-17 14h47.07.095221 +0530,
-150,z,48,3,195,3,,,,,475.29876259999946,,475.2852512999998,475.29876259999946,476.2980484999989,476.2980484999989,476.2980484999989,476.2980484999989,476.2980484999989,477.29819789999965,477.29819789999965,477.6003552000002,z,1,0.28813720000107423,None,X,001,2024-10-17_14h46.58.334,Motor Sequence Task,2024.1.5,None,2024-10-17 14h47.07.095221 +0530,
-50,x,49,0,196,0,,,,,477.6143928999991,,477.6009579999991,477.6143928999991,478.61434539999937,478.61434539999937,478.61434539999937,478.61434539999937,478.61434539999937,479.61416839999947,479.61416839999947,480.1330753000002,x,1,0.5127831999998307,None,X,001,2024-10-17_14h46.58.334,Motor Sequence Task,2024.1.5,None,2024-10-17 14h47.07.095221 +0530,
150,v,49,1,197,1,,,,,480.1474056999996,,480.13369579999926,480.1474056999996,481.1473210000004,481.1473210000004,481.1473210000004,481.1473210000004,481.1473210000004,482.1472147000004,482.1472147000004,482.58321009999963,v,1,0.4301417999995465,None,X,001,2024-10-17_14h46.58.334,Motor Sequence Task,2024.1.5,None,2024-10-17 14h47.07.095221 +0530,
50,c,49,2,198,2,,,,,482.59704559999955,,482.5838442999993,482.59704559999955,483.59693100000004,483.59693100000004,483.59693100000004,483.59693100000004,483.59693100000004,484.5969086999994,484.5969086999994,485.0494388999996,c,1,0.4400369999984832,None,X,001,2024-10-17_14h46.58.334,Motor Sequence Task,2024.1.5,None,2024-10-17 14h47.07.095221 +0530,
-150,z,49,3,199,3,,,,,485.0634888000004,,485.05003469999974,485.0634888000004,486.06346569999914,486.06346569999914,486.06346569999914,486.06346569999914,486.06346569999914,487.06319710000025,487.06319710000025,487.48261529999945,z,1,0.40874470000017027,None,X,001,2024-10-17_14h46.58.334,Motor Sequence Task,2024.1.5,None,2024-10-17 14h47.07.095221 +0530,
-150,z,,,,,0,0,0,3,487.52925499999947,,487.51169389999995,487.52925499999947,488.49641359999987,488.49641359999987,488.49641359999987,488.49641359999987,488.52974770000037,489.49716850000004,489.49716850000004,489.93237430000045,z,1,0.43045400000119116,None,X,001,2024-10-17_14h46.58.334,Motor Sequence Task,2024.1.5,None,2024-10-17 14h47.07.095221 +0530,
150,v,,,,,0,1,1,1,489.9461515999992,,489.93320479999966,489.9461515999992,490.94597839999915,490.94597839999915,490.94597839999915,490.94597839999915,490.94597839999915,491.94607449999967,491.94607449999967,492.4150434000003,v,1,0.46177779999925406,None,X,001,2024-10-17_14h46.58.334,Motor Sequence Task,2024.1.5,None,2024-10-17 14h47.07.095221 +0530,
-50,x,,,,,0,2,2,0,492.4292437999993,,492.41564130000006,492.4292437999993,493.42909080000027,493.42909080000027,493.42909080000027,493.42909080000027,493.42909080000027,494.4291121999995,494.4291121999995,494.99824140000055,c,0,0.5538196999987122,None,X,001,2024-10-17_14h46.58.334,Motor Sequence Task,2024.1.5,None,2024-10-17 14h47.07.095221 +0530,
-50,x,,,,,0,3,3,0,495.0121460999999,,494.9988422999995,495.0121460999999,496.0122833000005,496.0122833000005,496.0122833000005,496.0122833000005,496.0122833000005,497.0119455999993,497.0119455999993,497.5142536000003,x,1,0.4863820999999007,None,X,001,2024-10-17_14h46.58.334,Motor Sequence Task,2024.1.5,None,2024-10-17 14h47.07.095221 +0530,
150,v,,,,,1,0,4,1,497.52843369999937,,497.51485259999936,497.52843369999937,498.528332599999,498.528332599999,498.528332599999,498.528332599999,498.528332599999,499.5281825999991,499.5281825999991,499.9481161999993,v,1,0.40389309999955003,None,X,001,2024-10-17_14h46.58.334,Motor Sequence Task,2024.1.5,None,2024-10-17 14h47.07.095221 +0530,
-150,z,,,,,1,1,5,3,499.9616000999995,,499.94871280000007,499.9616000999995,500.96147999999994,500.96147999999994,500.96147999999994,500.96147999999994,500.96147999999994,501.9612567999993,501.9612567999993,502.3304740000003,z,1,0.3621646999999939,None,X,001,2024-10-17_14h46.58.334,Motor Sequence Task,2024.1.5,None,2024-10-17 14h47.07.095221 +0530,
50,c,,,,,1,2,6,2,502.34471329999906,,502.3310760000004,502.34471329999906,503.3444774999989,503.3444774999989,503.3444774999989,503.3444774999989,503.3444774999989,504.3448275999999,504.3448275999999,504.74700680000024,c,1,0.38811680000071647,None,X,001,2024-10-17_14h46.58.334,Motor Sequence Task,2024.1.5,None,2024-10-17 14h47.07.095221 +0530,
50,c,,,,,1,3,7,2,504.7609852000005,,504.74761840000065,504.7609852000005,505.76134850000017,505.76134850000017,505.76134850000017,505.76134850000017,505.76134850000017,506.7606579000003,506.7606579000003,507.1966513999996,c,1,0.42742209999960323,None,X,001,2024-10-17_14h46.58.334,Motor Sequence Task,2024.1.5,None,2024-10-17 14h47.07.095221 +0530,
150,v,,,,,2,0,8,1,507.21062189999975,,507.1972442999995,507.21062189999975,508.21043199999986,508.21043199999986,508.21043199999986,508.21043199999986,508.21043199999986,509.2103625,509.2103625,509.6127526,v,1,0.392882300000565,None,X,001,2024-10-17_14h46.58.334,Motor Sequence Task,2024.1.5,None,2024-10-17 14h47.07.095221 +0530,
-50,x,,,,,2,1,9,0,509.6268928999998,,509.6133709000005,509.6268928999998,510.6267962000002,510.6267962000002,510.6267962000002,510.6267962000002,510.6267962000002,511.6266663000006,511.6266663000006,512.2292350999996,x,1,0.5867911000004824,None,X,001,2024-10-17_14h46.58.334,Motor Sequence Task,2024.1.5,None,2024-10-17 14h47.07.095221 +0530,
-150,z,,,,,2,2,10,3,512.2433633,,512.2298286000005,512.2433633,513.2438459000005,513.2438459000005,513.2438459000005,513.2438459000005,513.2438459000005,514.2431070000002,514.2431070000002,514.6455248000002,z,1,0.39059350000025006,None,X,001,2024-10-17_14h46.58.334,Motor Sequence Task,2024.1.5,None,2024-10-17 14h47.07.095221 +0530,
150,v,,,,,2,3,11,1,514.6597664000001,,514.6461257999999,514.6597664000001,515.659549,515.659549,515.659549,515.659549,515.659549,516.6593094999989,516.6593094999989,517.1290492999997,c,0,0.46452339999996184,None,X,001,2024-10-17_14h46.58.334,Motor Sequence Task,2024.1.5,None,2024-10-17 14h47.07.095221 +0530,
50,c,,,,,3,0,12,2,517.1429463000004,,517.1296516000002,517.1429463000004,518.1424253000005,518.1424253000005,518.1424253000005,518.1424253000005,518.1424253000005,519.142315699999,519.142315699999,519.7451708999997,c,1,0.5964688999993086,None,X,001,2024-10-17_14h46.58.334,Motor Sequence Task,2024.1.5,None,2024-10-17 14h47.07.095221 +0530,
-50,x,,,,,3,1,13,0,519.7591876999995,,519.7457599999998,519.7591876999995,520.7589071999992,520.7589071999992,520.7589071999992,520.7589071999992,520.7589071999992,521.7588250999997,521.7588250999997,522.1114550000002,z,0,0.34960030000002007,None,X,001,2024-10-17_14h46.58.334,Motor Sequence Task,2024.1.5,None,2024-10-17 14h47.07.095221 +0530,
-50,x,,,,,3,2,14,0,522.1255760000004,,522.1120539999993,522.1255760000004,523.1250103999992,523.1250103999992,523.1250103999992,523.1250103999992,523.1250103999992,524.1251221999992,524.1251221999992,524.7112350999996,x,1,0.5740334999991319,None,X,001,2024-10-17_14h46.58.334,Motor Sequence Task,2024.1.5,None,2024-10-17 14h47.07.095221 +0530,
150,v,,,,,3,3,15,1,524.7252052000003,,524.7118322000006,524.7252052000003,525.7249118,525.7249118,525.7249118,525.7249118,525.7249118,526.7247587999991,526.7247587999991,527.1107235,v,1,0.37998379999953613,None,X,001,2024-10-17_14h46.58.334,Motor Sequence Task,2024.1.5,None,2024-10-17 14h47.07.095221 +0530,
-150,z,,,,,4,0,16,3,527.1247201000006,,527.111322499999,527.1247201000006,528.1247903999993,528.1247903999993,528.1247903999993,528.1247903999993,528.1247903999993,529.1242536999998,529.1242536999998,529.5272263999996,z,1,0.38972110000031535,None,X,001,2024-10-17_14h46.58.334,Motor Sequence Task,2024.1.5,None,2024-10-17 14h47.07.095221 +0530,
-50,x,,,,,4,1,17,0,529.5411523999992,,529.5278183999999,529.5411523999992,530.541124899999,530.541124899999,530.541124899999,530.541124899999,530.541124899999,531.5408153999997,531.5408153999997,531.9437787000006,x,1,0.40040529999896535,None,X,001,2024-10-17_14h46.58.334,Motor Sequence Task,2024.1.5,None,2024-10-17 14h47.07.095221 +0530,
-150,z,,,,,4,2,18,3,531.9576713999995,,531.9443849999989,531.9576713999995,532.9571751000003,532.9571751000003,532.9571751000003,532.9571751000003,532.9571751000003,533.9570977999992,533.9570977999992,534.9427627999994,z,1,0.9803264000001946,None,X,001,2024-10-17_14h46.58.334,Motor Sequence Task,2024.1.5,None,2024-10-17 14h47.07.095221 +0530,
-150,z,,,,,4,3,19,3,534.9570098999993,,534.9433589,534.9570098999993,535.9568426999995,535.9568426999995,535.9568426999995,535.9568426999995,535.9568426999995,536.9566912999999,536.9566912999999,537.3759680000003,z,1,0.40336370000113675,None,X,001,2024-10-17_14h46.58.334,Motor Sequence Task,2024.1.5,None,2024-10-17 14h47.07.095221 +0530,
-50,x,,,,,5,0,20,0,537.3901102999989,,537.3765709999989,537.3901102999989,538.3901093999993,538.3901093999993,538.3901093999993,538.3901093999993,538.3901093999993,539.3897718999997,539.3897718999997,539.7924402999997,x,1,0.4011011000002327,None,X,001,2024-10-17_14h46.58.334,Motor Sequence Task,2024.1.5,None,2024-10-17 14h47.07.095221 +0530,
50,c,,,,,5,1,21,2,539.8063624000006,,539.7930667,539.8063624000006,540.8062597999997,540.8062597999997,540.8062597999997,540.8062597999997,540.8062597999997,541.8063399999992,541.8063399999992,542.2421883999996,c,1,0.4340491999992082,None,X,001,2024-10-17_14h46.58.334,Motor Sequence Task,2024.1.5,None,2024-10-17 14h47.07.095221 +0530,
-150,z,,,,,5,2,22,3,542.2561279000001,,542.2427924999993,542.2561279000001,543.2559173999998,543.2559173999998,543.2559173999998,543.2559173999998,543.2559173999998,544.2557240000006,544.2557240000006,544.608605899999,z,1,0.3410268999996333,None,X,001,2024-10-17_14h46.58.334,Motor Sequence Task,2024.1.5,None,2024-10-17 14h47.07.095221 +0530,
-150,z,,,,,5,3,23,3,544.6223682,,544.6092035000001,544.6223682,545.6225546000005,545.6225546000005,545.6225546000005,545.6225546000005,545.6225546000005,546.6222667999991,546.6222667999991,547.0247103000002,z,1,0.39495500000157335,None,X,001,2024-10-17_14h46.58.334,Motor Sequence Task,2024.1.5,None,2024-10-17 14h47.07.095221 +0530,
150,v,,,,,6,0,24,1,547.0389166999994,,547.0253052999997,547.0389166999994,548.0387100999997,548.0387100999997,548.0387100999997,548.0387100999997,548.0387100999997,549.0384073000005,549.0384073000005,549.5908713999997,v,1,0.538679699999193,None,X,001,2024-10-17_14h46.58.334,Motor Sequence Task,2024.1.5,None,2024-10-17 14h47.07.095221 +0530,
150,v,,,,,6,1,25,1,549.6051912000003,,549.5914699999994,549.6051912000003,550.6050507999989,550.6050507999989,550.6050507999989,550.6050507999989,550.6050507999989,551.6049079000004,551.6049079000004,552.0908202999999,c,0,0.47245870000006107,None,X,001,2024-10-17_14h46.58.334,Motor Sequence Task,2024.1.5,None,2024-10-17 14h47.07.095221 +0530,
-50,x,,,,,6,2,26,0,552.1050899999991,,552.0914171999993,552.1050899999991,553.1047894000003,553.1047894000003,553.1047894000003,553.1047894000003,553.1047894000003,554.1049428999995,554.1049428999995,554.5237293999999,x,1,0.412882399999944,None,X,001,2024-10-17_14h46.58.334,Motor Sequence Task,2024.1.5,None,2024-10-17 14h47.07.095221 +0530,
150,v,,,,,6,3,27,1,554.537874399999,,554.5243379000003,554.537874399999,555.5389636999989,555.5389636999989,555.5389636999989,555.5389636999989,555.5389636999989,556.5375172999993,556.5375172999993,556.9233442999994,c,0,0.3744267000001855,None,X,001,2024-10-17_14h46.58.334,Motor Sequence Task,2024.1.5,None,2024-10-17 14h47.07.095221 +0530,
-150,z,,,,,7,0,28,3,556.9375677999997,,556.9239421000002,556.9375677999997,557.9374097,557.9374097,557.9374097,557.9374097,557.9374097,558.9373489999998,558.9373489999998,559.3232415000002,z,1,0.38482459999977436,None,X,001,2024-10-17_14h46.58.334,Motor Sequence Task,2024.1.5,None,2024-10-17 14h47.07.095221 +0530,
-50,x,,,,,7,1,29,0,559.337266999999,,559.3238538000005,559.337266999999,560.3370206999989,560.3370206999989,560.3370206999989,560.3370206999989,560.3370206999989,561.3370446999998,561.3370446999998,561.8066431999996,x,1,0.45580209999934596,None,X,001,2024-10-17_14h46.58.334,Motor Sequence Task,2024.1.5,None,2024-10-17 14h47.07.095221 +0530,
50,c,,,,,7,2,30,2,561.8203092999993,,561.8072417999992,561.8203092999993,562.8202265,562.8202265,562.8202265,562.8202265,562.8202265,563.8200433000002,563.8200433000002,564.2723575999989,c,1,0.4385202000012214,None,X,001,2024-10-17_14h46.58.334,Motor Sequence Task,2024.1.5,None,2024-10-17 14h47.07.095221 +0530,
-150,z,,,,,7,3,31,3,564.2865552999992,,564.272989699999,564.2865552999992,565.286387099999,565.286387099999,565.286387099999,565.286387099999,565.286387099999,566.2861826999997,566.2861826999997,566.7222019000001,z,1,0.42134600000099454,None,X,001,2024-10-17_14h46.58.334,Motor Sequence Task,2024.1.5,None,2024-10-17 14h47.07.095221 +0530,
50,c,,,,,8,0,32,2,566.7365083999994,,566.7227968999996,566.7365083999994,567.7360470999993,567.7360470999993,567.7360470999993,567.7360470999993,567.7360470999993,568.7358456999991,568.7358456999991,569.0720531000006,c,1,0.3287244999992254,None,X,001,2024-10-17_14h46.58.334,Motor Sequence Task,2024.1.5,None,2024-10-17 14h47.07.095221 +0530,
-50,x,,,,,8,1,33,0,569.0859738999989,,569.0726808,569.0859738999989,570.0859292999994,570.0859292999994,570.0859292999994,570.0859292999994,570.0859292999994,571.0859449999989,571.0859449999989,571.5214880999993,x,1,0.4279378999999608,None,X,001,2024-10-17_14h46.58.334,Motor Sequence Task,2024.1.5,None,2024-10-17 14h47.07.095221 +0530,
50,c,,,,,8,2,34,2,571.5357502000006,,571.5221096999994,571.5357502000006,572.5355718999999,572.5355718999999,572.5355718999999,572.5355718999999,572.5355718999999,573.5353357999993,573.5353357999993,573.9548455999993,c,1,0.40302820000033535,None,X,001,2024-10-17_14h46.58.334,Motor Sequence Task,2024.1.5,None,2024-10-17 14h47.07.095221 +0530,
-50,x,,,,,8,3,35,0,573.9688375999995,,573.9554442999997,573.9688375999995,574.9685267999994,574.9685267999994,574.9685267999994,574.9685267999994,574.9685267999994,575.9683191000004,575.9683191000004,576.4043815000005,x,1,0.426506400001017,None,X,001,2024-10-17_14h46.58.334,Motor Sequence Task,2024.1.5,None,2024-10-17 14h47.07.095221 +0530,
-150,z,,,,,9,0,36,3,576.4183543999989,,576.4049849999992,576.4183543999989,577.4181267000004,577.4181267000004,577.4181267000004,577.4181267000004,577.4181267000004,578.4182283999999,578.4182283999999,578.7870402999997,z,1,0.3616185000009864,None,X,001,2024-10-17_14h46.58.334,Motor Sequence Task,2024.1.5,None,2024-10-17 14h47.07.095221 +0530,
-150,z,,,,,9,1,37,3,578.801273699999,,578.7876398999997,578.801273699999,579.8010562999989,579.8010562999989,579.8010562999989,579.8010562999989,579.8010562999989,580.8011048999997,580.8011048999997,581.1537702000005,z,1,0.3470978000004834,None,X,001,2024-10-17_14h46.58.334,Motor Sequence Task,2024.1.5,None,2024-10-17 14h47.07.095221 +0530,
-50,x,,,,,9,2,38,0,581.1676568000003,,581.1543702999988,581.1676568000003,582.1677863000004,582.1677863000004,582.1677863000004,582.1677863000004,582.1677863000004,583.1675223999991,583.1675223999991,583.6705667999995,x,1,0.48582840000017313,None,X,001,2024-10-17_14h46.58.334,Motor Sequence Task,2024.1.5,None,2024-10-17 14h47.07.095221 +0530,
-150,z,,,,,9,3,39,3,583.6839875999995,,583.6712162999993,583.6839875999995,584.6843960000006,584.6843960000006,584.6843960000006,584.6843960000006,584.6843960000006,585.6837255999999,585.6837255999999,586.9361638999999,z,1,1.2420978999998624,None,X,001,2024-10-17_14h46.58.334,Motor Sequence Task,2024.1.5,None,2024-10-17 14h47.07.095221 +0530,
50,c,,,,,10,0,40,2,586.9502303999998,,586.936760999999,586.9502303999998,587.9501428000003,587.9501428000003,587.9501428000003,587.9501428000003,587.9501428000003,588.9501237000004,588.9501237000004,589.4524865000003,c,1,0.49543050000102085,None,X,001,2024-10-17_14h46.58.334,Motor Sequence Task,2024.1.5,None,2024-10-17 14h47.07.095221 +0530,
-50,x,,,,,10,1,41,0,589.4667348000003,,589.4530844000001,589.4667348000003,590.4664883999994,590.4664883999994,590.4664883999994,590.4664883999994,590.4664883999994,591.4664541000002,591.4664541000002,591.8855683999991,x,1,0.4098228000002564,None,X,001,2024-10-17_14h46.58.334,Motor Sequence Task,2024.1.5,None,2024-10-17 14h47.07.095221 +0530,
50,c,,,,,10,2,42,2,591.8996394999995,,591.8861701000005,591.8996394999995,592.8996471999999,592.8996471999999,592.8996471999999,592.8996471999999,592.8996471999999,593.8994273999997,593.8994273999997,594.635578899999,c,1,0.7335177999993903,None,X,001,2024-10-17_14h46.58.334,Motor Sequence Task,2024.1.5,None,2024-10-17 14h47.07.095221 +0530,
-150,z,,,,,10,3,43,3,594.6494294999993,,594.6361777000002,594.6494294999993,595.6490721999999,595.6490721999999,595.6490721999999,595.6490721999999,595.6490721999999,596.6489337000003,596.6489337000003,597.0349167999993,z,1,0.3786473999989539,None,X,001,2024-10-17_14h46.58.334,Motor Sequence Task,2024.1.5,None,2024-10-17 14h47.07.095221 +0530,
-150,z,,,,,11,0,44,3,597.0492133999996,,597.035512299999,597.0492133999996,598.0490532000003,598.0490532000003,598.0490532000003,598.0490532000003,598.0490532000003,599.0486507999995,599.0486507999995,599.4018228000004,z,1,0.3481689999989612,None,X,001,2024-10-17_14h46.58.334,Motor Sequence Task,2024.1.5,None,2024-10-17 14h47.07.095221 +0530,
150,v,,,,,11,1,45,1,599.4153480999994,,599.4026591999991,599.4153480999994,600.4152347999989,600.4152347999989,600.4152347999989,600.4152347999989,600.4152347999989,601.4150919999993,601.4150919999993,601.8174196999989,c,0,0.3869591999991826,None,X,001,2024-10-17_14h46.58.334,Motor Sequence Task,2024.1.5,None,2024-10-17 14h47.07.095221 +0530,
50,c,,,,,11,2,46,2,601.8317864,,601.8180150999997,601.8317864,602.8316644999995,602.8316644999995,602.8316644999995,602.8316644999995,602.8316644999995,603.8313280999992,603.8313280999992,604.2509190000001,c,1,0.4158577999987756,None,X,001,2024-10-17_14h46.58.334,Motor Sequence Task,2024.1.5,None,2024-10-17 14h47.07.095221 +0530,
-150,z,,,,,11,3,47,3,604.2648795000005,,604.2515268000006,604.2648795000005,605.2649657000002,605.2649657000002,605.2649657000002,605.2649657000002,605.2649657000002,606.2643430999997,606.2643430999997,606.5668021999991,z,1,0.29897709999931976,None,X,001,2024-10-17_14h46.58.334,Motor Sequence Task,2024.1.5,None,2024-10-17 14h47.07.095221 +0530,
150,v,,,,,12,0,48,1,606.5811369000003,,606.5673920999998,606.5811369000003,607.5808852999999,607.5808852999999,607.5808852999999,607.5808852999999,607.5808852999999,608.5808348999999,608.5808348999999,608.9667083000004,v,1,0.3719884000001912,None,X,001,2024-10-17_14h46.58.334,Motor Sequence Task,2024.1.5,None,2024-10-17 14h47.07.095221 +0530,
50,c,,,,,12,1,49,2,608.980802099999,,608.9673019999991,608.980802099999,609.9807423999991,609.9807423999991,609.9807423999991,609.9807423999991,609.9807423999991,610.9804915999994,610.9804915999994,611.466189499999,c,1,0.4772027999988495,None,X,001,2024-10-17_14h46.58.334,Motor Sequence Task,2024.1.5,None,2024-10-17 14h47.07.095221 +0530,
150,v,,,,,12,2,50,1,611.4803181999996,,611.4667848999998,611.4803181999996,612.4803895999994,612.4803895999994,612.4803895999994,612.4803895999994,612.4803895999994,613.480177899999,613.480177899999,614.1159859999989,v,1,0.6298540000007051,None,X,001,2024-10-17_14h46.58.334,Motor Sequence Task,2024.1.5,None,2024-10-17 14h47.07.095221 +0530,
150,v,,,,,12,3,51,1,614.1303050999995,,614.1165786999991,614.1303050999995,615.1300013,615.1300013,615.1300013,615.1300013,615.1300013,616.1298222999994,616.1298222999994,616.7490548000005,c,0,0.6042701999995188,None,X,001,2024-10-17_14h46.58.334,Motor Sequence Task,2024.1.5,None,2024-10-17 14h47.07.095221 +0530,
150,v,,,,,13,0,52,1,616.7631808999995,,616.7496558999992,616.7631808999995,617.762983999999,617.762983999999,617.762983999999,617.762983999999,617.762983999999,618.7628260000001,618.7628260000001,619.1153603999992,v,1,0.3370319000005111,None,X,001,2024-10-17_14h46.58.334,Motor Sequence Task,2024.1.5,None,2024-10-17 14h47.07.095221 +0530,
-50,x,,,,,13,1,53,0,619.1294715000004,,619.1159544999991,619.1294715000004,620.1292775000002,620.1292775000002,620.1292775000002,620.1292775000002,620.1292775000002,621.129077399999,621.129077399999,621.8148669999991,z,0,0.6765040000009321,None,X,001,2024-10-17_14h46.58.334,Motor Sequence Task,2024.1.5,None,2024-10-17 14h47.07.095221 +0530,
-150,z,,,,,13,2,54,3,621.8290391999999,,621.8154605,621.8290391999999,622.8289351999993,622.8289351999993,622.8289351999993,622.8289351999993,622.8289351999993,623.8287758000006,623.8287758000006,624.3159108,z,1,0.4719217000001663,None,X,001,2024-10-17_14h46.58.334,Motor Sequence Task,2024.1.5,None,2024-10-17 14h47.07.095221 +0530,
150,v,,,,,13,3,55,1,624.3290345000005,,624.3165735000002,624.3290345000005,625.3286107999993,625.3286107999993,625.3286107999993,625.3286107999993,625.3286107999993,626.3289839999998,626.3289839999998,626.7476219,v,1,0.40734639999936917,None,X,001,2024-10-17_14h46.58.334,Motor Sequence Task,2024.1.5,None,2024-10-17 14h47.07.095221 +0530,
-50,x,,,,,14,0,56,0,626.7616417999998,,626.7482277999989,626.7616417999998,627.7616034999992,627.7616034999992,627.7616034999992,627.7616034999992,627.7616034999992,628.7615440999998,628.7615440999998,629.5309245999997,z,0,0.7608851999993931,None,X,001,2024-10-17_14h46.58.334,Motor Sequence Task,2024.1.5,None,2024-10-17 14h47.07.095221 +0530,
150,v,,,,,14,1,57,1,629.5448333000004,,629.5315262999993,629.5448333000004,630.544565799999,630.544565799999,630.544565799999,630.544565799999,630.544565799999,631.5445488999994,631.5445488999994,631.9307389999994,v,1,0.38282970000000205,None,X,001,2024-10-17_14h46.58.334,Motor Sequence Task,2024.1.5,None,2024-10-17 14h47.07.095221 +0530,
50,c,,,,,14,2,58,2,631.9443845000005,,631.9313356000002,631.9443845000005,632.9443403999994,632.9443403999994,632.9443403999994,632.9443403999994,632.9443403999994,633.9442270999989,633.9442270999989,634.3966798000001,c,1,0.4383668000009493,None,X,001,2024-10-17_14h46.58.334,Motor Sequence Task,2024.1.5,None,2024-10-17 14h47.07.095221 +0530,
-150,z,,,,,14,3,59,3,634.4108584000005,,634.3972766999996,634.4108584000005,635.4109102999992,635.4109102999992,635.4109102999992,635.4109102999992,635.4109102999992,636.4104790999991,636.4104790999991,636.8464901999996,z,1,0.4282631999994919,None,X,001,2024-10-17_14h46.58.334,Motor Sequence Task,2024.1.5,None,2024-10-17 14h47.07.095221 +0530,
150,v,,,,,15,0,60,1,636.8606565999999,,636.8470859999998,636.8606565999999,637.8603060999994,637.8603060999994,637.8603060999994,637.8603060999994,637.8603060999994,638.860224099999,638.860224099999,639.2460563000004,v,1,0.372412800001257,None,X,001,2024-10-17_14h46.58.334,Motor Sequence Task,2024.1.5,None,2024-10-17 14h47.07.095221 +0530,
-50,x,,,,,15,1,61,0,639.2602023,,639.2466501999988,639.2602023,640.2600129999992,640.2600129999992,640.2600129999992,640.2600129999992,640.2600129999992,641.2597117000005,641.2597117000005,642.0293086000001,x,1,0.7531221000008372,None,X,001,2024-10-17_14h46.58.334,Motor Sequence Task,2024.1.5,None,2024-10-17 14h47.07.095221 +0530,
50,c,,,,,15,2,62,2,642.0430493000003,,642.0299044000003,642.0430493000003,643.0432153999991,643.0432153999991,643.0432153999991,643.0432153999991,643.0432153999991,644.0428520999994,644.0428520999994,644.8952110999999,v,0,0.8363262000002578,None,X,001,2024-10-17_14h46.58.334,Motor Sequence Task,2024.1.5,None,2024-10-17 14h47.07.095221 +0530,
50,c,,,,,15,3,63,2,644.9095164999999,,644.8958024000003,644.9095164999999,645.9093563999995,645.9093563999995,645.9093563999995,645.9093563999995,645.9093563999995,646.9090510000005,646.9090510000005,647.3118004999997,c,1,0.39519950000067183,None,X,001,2024-10-17_14h46.58.334,Motor Sequence Task,2024.1.5,None,2024-10-17 14h47.07.095221 +0530,
150,v,,,,,16,0,64,1,647.3257993999996,,647.3123978999993,647.3257993999996,648.3256048000003,648.3256048000003,648.3256048000003,648.3256048000003,648.3256048000003,649.3254779999988,649.3254779999988,649.7446602,v,1,0.4096071000003576,None,X,001,2024-10-17_14h46.58.334,Motor Sequence Task,2024.1.5,None,2024-10-17 14h47.07.095221 +0530,
50,c,,,,,16,1,65,2,649.7587664000002,,649.7452553999992,649.7587664000002,650.7586628999998,650.7586628999998,650.7586628999998,650.7586628999998,650.7586628999998,651.7585008999995,651.7585008999995,652.2446498999998,c,1,0.4823194999989937,None,X,001,2024-10-17_14h46.58.334,Motor Sequence Task,2024.1.5,None,2024-10-17 14h47.07.095221 +0530,
50,c,,,,,16,2,66,2,652.2597480999993,,652.2452457999989,652.2597480999993,653.2583685999998,653.2583685999998,653.2583685999998,653.2583685999998,653.2750188999998,654.2582688000002,654.2582688000002,655.8605310999992,c,1,1.5892693000005238,None,X,001,2024-10-17_14h46.58.334,Motor Sequence Task,2024.1.5,None,2024-10-17 14h47.07.095221 +0530,
-150,z,,,,,16,3,67,3,655.8747552999994,,655.8611289,655.8747552999994,656.8746145000005,656.8746145000005,656.8746145000005,656.8746145000005,656.8746145000005,657.8744477,657.8744477,658.4100880000005,z,1,0.518768199999613,None,X,001,2024-10-17_14h46.58.334,Motor Sequence Task,2024.1.5,None,2024-10-17 14h47.07.095221 +0530,
-150,z,,,,,17,0,68,3,658.4244266999995,,658.4106823000002,658.4244266999995,659.4241244000004,659.4241244000004,659.4241244000004,659.4241244000004,659.4241244000004,660.4242135999993,660.4242135999993,660.8264834999991,z,1,0.3883053000008658,None,X,001,2024-10-17_14h46.58.334,Motor Sequence Task,2024.1.5,None,2024-10-17 14h47.07.095221 +0530,
-150,z,,,,,17,1,69,3,660.8407640999994,,660.8270768000002,660.8407640999994,661.8404575999994,661.8404575999994,661.8404575999994,661.8404575999994,661.8404575999994,662.8404262000004,662.8404262000004,663.5432695,z,1,0.6990080999985366,None,X,001,2024-10-17_14h46.58.334,Motor Sequence Task,2024.1.5,None,2024-10-17 14h47.07.095221 +0530,
150,v,,,,,17,2,70,1,663.5572551999994,,663.5438983000004,663.5572551999994,664.5567704000005,664.5567704000005,664.5567704000005,664.5567704000005,664.5567704000005,665.5566113000004,665.5566113000004,666.1426001999989,v,1,0.5790125999992597,None,X,001,2024-10-17_14h46.58.334,Motor Sequence Task,2024.1.5,None,2024-10-17 14h47.07.095221 +0530,
50,c,,,,,17,3,71,2,666.1566803000005,,666.1431935,666.1566803000005,667.1570646,667.1570646,667.1570646,667.1570646,667.1570646,668.1562957999995,668.1562957999995,668.7088648999998,c,1,0.5390155999994022,None,X,001,2024-10-17_14h46.58.334,Motor Sequence Task,2024.1.5,None,2024-10-17 14h47.07.095221 +0530,
-150,z,,,,,18,0,72,3,668.7230173999997,,668.709456999999,668.7230173999997,669.7228615999993,669.7228615999993,669.7228615999993,669.7228615999993,669.7228615999993,670.7226635999996,670.7226635999996,671.2750964999996,z,1,0.5437875000006898,None,X,001,2024-10-17_14h46.58.334,Motor Sequence Task,2024.1.5,None,2024-10-17 14h47.07.095221 +0530,
-50,x,,,,,18,1,73,0,671.2892714999998,,671.2756866,671.2892714999998,672.2888764999989,672.2888764999989,672.2888764999989,672.2888764999989,672.2888764999989,673.2890860999996,673.2890860999996,674.0081427000005,x,1,0.7034874999990279,None,X,001,2024-10-17_14h46.58.334,Motor Sequence Task,2024.1.5,None,2024-10-17 14h47.07.095221 +0530,
-150,z,,,,,18,2,74,3,674.0223798999996,,674.0090605999994,674.0223798999996,675.0223088000002,675.0223088000002,675.0223088000002,675.0223088000002,675.0223088000002,676.0220742000001,676.0220742000001,676.4243984000004,z,1,0.3941785000006348,None,X,001,2024-10-17_14h46.58.334,Motor Sequence Task,2024.1.5,None,2024-10-17 14h47.07.095221 +0530,
150,v,,,,,18,3,75,1,676.4388545999991,,676.4250037000002,676.4388545999991,677.4385423999993,677.4385423999993,677.4385423999993,677.4385423999993,677.4385423999993,678.4383751999994,678.4383751999994,678.9075527999994,v,1,0.45307839999986754,None,X,001,2024-10-17_14h46.58.334,Motor Sequence Task,2024.1.5,None,2024-10-17 14h47.07.095221 +0530,
-150,z,,,,,19,0,76,3,678.9215839999997,,678.9081482999991,678.9215839999997,679.9214351999999,679.9214351999999,679.9214351999999,679.9214351999999,679.9214351999999,680.9213904999997,680.9213904999997,681.2411085999993,z,1,0.3158226999985345,None,X,001,2024-10-17_14h46.58.334,Motor Sequence Task,2024.1.5,None,2024-10-17 14h47.07.095221 +0530,
-50,x,,,,,19,1,77,0,681.2546836999991,,681.2417630999989,681.2546836999991,682.2545334999995,682.2545334999995,682.2545334999995,682.2545334999995,682.2545334999995,683.2546189999994,683.2546189999994,683.6069251999998,x,1,0.33662379999987024,None,X,001,2024-10-17_14h46.58.334,Motor Sequence Task,2024.1.5,None,2024-10-17 14h47.07.095221 +0530,
150,v,,,,,19,2,78,1,683.6209839999992,,683.6075194000005,683.6209839999992,684.6209373000002,684.6209373000002,684.6209373000002,684.6209373000002,684.6209373000002,685.6206822999993,685.6206822999993,686.7064888999994,v,1,1.0781994000008126,None,X,001,2024-10-17_14h46.58.334,Motor Sequence Task,2024.1.5,None,2024-10-17 14h47.07.095221 +0530,
-50,x,,,,,19,3,79,0,686.7205988000005,,686.7070896000005,686.7205988000005,687.7204679000006,687.7204679000006,687.7204679000006,687.7204679000006,687.7204679000006,688.7205871999995,688.7205871999995,689.4569592999997,x,1,0.7327702000002319,None,X,001,2024-10-17_14h46.58.334,Motor Sequence Task,2024.1.5,None,2024-10-17 14h47.07.095221 +0530,
-150,z,,,,,20,0,80,3,689.4699158000003,,689.4578832999996,689.4699158000003,690.4700902999994,690.4700902999994,690.4700902999994,690.4700902999994,690.4700902999994,691.4701416999997,691.4701416999997,692.0725669000003,z,1,0.5896848000011232,None,X,001,2024-10-17_14h46.58.334,Motor Sequence Task,2024.1.5,None,2024-10-17 14h47.07.095221 +0530,
50,c,,,,,20,1,81,2,692.0864481999997,,692.0731625999997,692.0864481999997,693.0864832999996,693.0864832999996,693.0864832999996,693.0864832999996,693.0864832999996,694.0865018999993,694.0865018999993,694.6055400999994,c,1,0.5136378000006516,None,X,001,2024-10-17_14h46.58.334,Motor Sequence Task,2024.1.5,None,2024-10-17 14h47.07.095221 +0530,
150,v,,,,,20,2,82,1,694.6196741000003,,694.606135,694.6196741000003,695.6195255999992,695.6195255999992,695.6195255999992,695.6195255999992,695.6195255999992,696.6194195999997,696.6194195999997,697.4887306,v,1,0.8610461999996915,None,X,001,2024-10-17_14h46.58.334,Motor Sequence Task,2024.1.5,None,2024-10-17 14h47.07.095221 +0530,
150,v,,,,,20,3,83,1,697.5026192999994,,697.4893508000005,697.5026192999994,698.5037154000001,698.5037154000001,698.5037154000001,698.5037154000001,698.5037154000001,699.502301999999,699.502301999999,700.2718466999995,v,1,0.7558523999996396,None,X,001,2024-10-17_14h46.58.334,Motor Sequence Task,2024.1.5,None,2024-10-17 14h47.07.095221 +0530,
150,v,,,,,21,0,84,1,700.2856061000002,,700.2724390999992,700.2856061000002,701.2858694999995,701.2858694999995,701.2858694999995,701.2858694999995,701.2858694999995,702.285575599999,702.285575599999,702.7044774000005,v,1,0.4055353000003379,None,X,001,2024-10-17_14h46.58.334,Motor Sequence Task,2024.1.5,None,2024-10-17 14h47.07.095221 +0530,
150,v,,,,,21,1,85,1,702.7187832,,702.7050725999998,702.7187832,703.7185685000004,703.7185685000004,703.7185685000004,703.7185685000004,703.7185685000004,704.7184911000004,704.7184911000004,705.2710471999999,v,1,0.5384881000009045,None,X,001,2024-10-17_14h46.58.334,Motor Sequence Task,2024.1.5,None,2024-10-17 14h47.07.095221 +0530,
